subject,blockcode,trialcode,trialnum,latency,response,values.imageName,stimulusitem1,stimulusnumber1,stimulusitem2,stimulusnumber2,stimulusitem3,stimulusnumber3,stimulusitem4,stimulusnumber4,stimulusitem5,stimulusnumber5,stimulusitem6,stimulusnumber6,stimulusitem7,stimulusnumber7,stimulusitem8,stimulusnumber8,stimulusitem9,stimulusnumber9,stimulusitem10,stimulusnumber10,stimulusitem11,stimulusnumber11,stimulusitem12,stimulusnumber12,stimulusitem13,stimulusnumber13,stimulusitem14,stimulusnumber14,stimulusitem15,stimulusnumber15,stimulusitem16,stimulusnumber16,stimulusitem17,stimulusnumber17,type
979079866,reminder_practice,reminder_practice,1,1061,reveal,placeholder_image,Click the center square to proceed to the PRACTICE trials,1,reveal.png,5,0,0,0,0,0,0,0,0,0,0,0,0,0,0,0,0,0,0,0,0,0,0,0,0,0,0,0,0,0,0,266 masked
979079866,practiceBlock,practice,1,0,0,im0000003.jpg,+,1,im0000003.jpg,1,mask5.jpg,5,mask1.jpg,1,mask5.jpg,5,mask2.jpg,2,mask2.jpg,2,0,0,0,0,0,0,0,0,0,0,0,0,0,0,0,0,0,0,0,0,266 masked
979079866,practiceBlock,centre_mouse,2,476,reveal,im0000003.jpg,N_1.png,1,N_2.png,2,N_3.png,3,N_4.png,4,Y_1.png,1,Y_2.png,2,Y_3.png,3,Y_4.png,4,response_G.png,3,response_S.png,4,Word 0 of 6,1,Image 1 of 3,1,very_global.png,7,very_specific.png,6,less_global.png,9,less_specific.png,8,0,0,266 masked
979079866,practiceBlock,practice_trial,3,3365,no_3,im0000003.jpg,N_1.png,1,N_2.png,2,N_3.png,3,N_4.png,4,Y_1.png,1,Y_2.png,2,Y_3.png,3,Y_4.png,4,response_G.png,3,response_S.png,4,Word 1 of 6,1,Image 1 of 3,1,very_global.png,7,very_specific.png,6,less_global.png,9,less_specific.png,8,people,5,266 masked
979079866,practiceBlock,centre_mouse,4,811,reveal,im0000003.jpg,N_1.png,1,N_2.png,2,N_3.png,3,N_4.png,4,Y_1.png,1,Y_2.png,2,Y_3.png,3,Y_4.png,4,response_G.png,3,response_S.png,4,Word 1 of 6,1,Image 1 of 3,1,very_global.png,7,very_specific.png,6,less_global.png,9,less_specific.png,8,0,0,266 masked
979079866,practiceBlock,practice_trial,5,2532,yes_4,im0000003.jpg,N_1.png,1,N_2.png,2,N_3.png,3,N_4.png,4,Y_1.png,1,Y_2.png,2,Y_3.png,3,Y_4.png,4,response_G.png,3,response_S.png,4,Word 2 of 6,1,Image 1 of 3,1,very_global.png,7,very_specific.png,6,less_global.png,9,less_specific.png,8,calm,6,266 masked
979079866,practiceBlock,centre_mouse,6,718,reveal,im0000003.jpg,N_1.png,1,N_2.png,2,N_3.png,3,N_4.png,4,Y_1.png,1,Y_2.png,2,Y_3.png,3,Y_4.png,4,response_G.png,3,response_S.png,4,Word 2 of 6,1,Image 1 of 3,1,very_global.png,7,very_specific.png,6,less_global.png,9,less_specific.png,8,0,0,266 masked
979079866,practiceBlock,practice_trial,7,1511,yes_4,im0000003.jpg,N_1.png,1,N_2.png,2,N_3.png,3,N_4.png,4,Y_1.png,1,Y_2.png,2,Y_3.png,3,Y_4.png,4,response_G.png,3,response_S.png,4,Word 3 of 6,1,Image 1 of 3,1,very_global.png,7,very_specific.png,6,less_global.png,9,less_specific.png,8,sky,2,266 masked
979079866,practiceBlock,centre_mouse,8,676,reveal,im0000003.jpg,N_1.png,1,N_2.png,2,N_3.png,3,N_4.png,4,Y_1.png,1,Y_2.png,2,Y_3.png,3,Y_4.png,4,response_G.png,3,response_S.png,4,Word 3 of 6,1,Image 1 of 3,1,very_global.png,7,very_specific.png,6,less_global.png,9,less_specific.png,8,0,0,266 masked
979079866,practiceBlock,practice_trial,9,2335,no_4,im0000003.jpg,N_1.png,1,N_2.png,2,N_3.png,3,N_4.png,4,Y_1.png,1,Y_2.png,2,Y_3.png,3,Y_4.png,4,response_G.png,3,response_S.png,4,Word 4 of 6,1,Image 1 of 3,1,very_global.png,7,very_specific.png,6,less_global.png,9,less_specific.png,8,walk,4,266 masked
979079866,practiceBlock,centre_mouse,10,696,reveal,im0000003.jpg,N_1.png,1,N_2.png,2,N_3.png,3,N_4.png,4,Y_1.png,1,Y_2.png,2,Y_3.png,3,Y_4.png,4,response_G.png,3,response_S.png,4,Word 4 of 6,1,Image 1 of 3,1,very_global.png,7,very_specific.png,6,less_global.png,9,less_specific.png,8,0,0,266 masked
979079866,practiceBlock,practice_trial,11,1913,no_3,im0000003.jpg,N_1.png,1,N_2.png,2,N_3.png,3,N_4.png,4,Y_1.png,1,Y_2.png,2,Y_3.png,3,Y_4.png,4,response_G.png,3,response_S.png,4,Word 5 of 6,1,Image 1 of 3,1,very_global.png,7,very_specific.png,6,less_global.png,9,less_specific.png,8,street,3,266 masked
979079866,practiceBlock,centre_mouse,12,773,reveal,im0000003.jpg,N_1.png,1,N_2.png,2,N_3.png,3,N_4.png,4,Y_1.png,1,Y_2.png,2,Y_3.png,3,Y_4.png,4,response_G.png,3,response_S.png,4,Word 5 of 6,1,Image 1 of 3,1,very_global.png,7,very_specific.png,6,less_global.png,9,less_specific.png,8,0,0,266 masked
979079866,practiceBlock,practice_trial,13,1222,yes_3,im0000003.jpg,N_1.png,1,N_2.png,2,N_3.png,3,N_4.png,4,Y_1.png,1,Y_2.png,2,Y_3.png,3,Y_4.png,4,response_G.png,3,response_S.png,4,Word 6 of 6,1,Image 1 of 3,1,very_global.png,7,very_specific.png,6,less_global.png,9,less_specific.png,8,village,1,266 masked
979079866,practiceBlock,centre_mouse,14,1034,reveal,im0000003.jpg,N_1.png,1,N_2.png,2,N_3.png,3,N_4.png,4,Y_1.png,1,Y_2.png,2,Y_3.png,3,Y_4.png,4,response_G.png,3,response_S.png,4,Word 6 of 6,1,Image 1 of 3,1,very_global.png,7,very_specific.png,6,less_global.png,9,less_specific.png,8,0,0,266 masked
979079866,practiceBlock,practice,1,0,0,im0000003.jpg,+,1,im0000014.jpg,3,mask4.jpg,4,mask5.jpg,5,mask2.jpg,2,mask5.jpg,5,mask1.jpg,1,0,0,0,0,0,0,0,0,0,0,0,0,0,0,0,0,0,0,0,0,266 masked
979079866,practiceBlock,centre_mouse,2,1234,reveal,im0000003.jpg,N_1.png,1,N_2.png,2,N_3.png,3,N_4.png,4,Y_1.png,1,Y_2.png,2,Y_3.png,3,Y_4.png,4,response_G.png,3,response_S.png,4,Word 0 of 6,1,Image 2 of 3,1,very_global.png,7,very_specific.png,6,less_global.png,9,less_specific.png,8,0,0,266 masked
979079866,practiceBlock,practice_trial,3,2099,yes_4,im0000014.jpg,N_1.png,1,N_2.png,2,N_3.png,3,N_4.png,4,Y_1.png,1,Y_2.png,2,Y_3.png,3,Y_4.png,4,response_G.png,3,response_S.png,4,Word 1 of 6,1,Image 2 of 3,1,very_global.png,7,very_specific.png,6,less_global.png,9,less_specific.png,8,crowd,1,266 masked
979079866,practiceBlock,centre_mouse,4,700,reveal,im0000014.jpg,N_1.png,1,N_2.png,2,N_3.png,3,N_4.png,4,Y_1.png,1,Y_2.png,2,Y_3.png,3,Y_4.png,4,response_G.png,3,response_S.png,4,Word 1 of 6,1,Image 2 of 3,1,very_global.png,7,very_specific.png,6,less_global.png,9,less_specific.png,8,0,0,266 masked
979079866,practiceBlock,practice_trial,5,1715,no_4,im0000014.jpg,N_1.png,1,N_2.png,2,N_3.png,3,N_4.png,4,Y_1.png,1,Y_2.png,2,Y_3.png,3,Y_4.png,4,response_G.png,3,response_S.png,4,Word 2 of 6,1,Image 2 of 3,1,very_global.png,7,very_specific.png,6,less_global.png,9,less_specific.png,8,tourist,5,266 masked
979079866,practiceBlock,centre_mouse,6,1002,reveal,im0000014.jpg,N_1.png,1,N_2.png,2,N_3.png,3,N_4.png,4,Y_1.png,1,Y_2.png,2,Y_3.png,3,Y_4.png,4,response_G.png,3,response_S.png,4,Word 2 of 6,1,Image 2 of 3,1,very_global.png,7,very_specific.png,6,less_global.png,9,less_specific.png,8,0,0,266 masked
979079866,practiceBlock,practice_trial,7,2051,yes_4,im0000014.jpg,N_1.png,1,N_2.png,2,N_3.png,3,N_4.png,4,Y_1.png,1,Y_2.png,2,Y_3.png,3,Y_4.png,4,response_G.png,3,response_S.png,4,Word 3 of 6,1,Image 2 of 3,1,very_global.png,7,very_specific.png,6,less_global.png,9,less_specific.png,8,people,3,266 masked
979079866,practiceBlock,centre_mouse,8,786,reveal,im0000014.jpg,N_1.png,1,N_2.png,2,N_3.png,3,N_4.png,4,Y_1.png,1,Y_2.png,2,Y_3.png,3,Y_4.png,4,response_G.png,3,response_S.png,4,Word 3 of 6,1,Image 2 of 3,1,very_global.png,7,very_specific.png,6,less_global.png,9,less_specific.png,8,0,0,266 masked
979079866,practiceBlock,practice_trial,9,1177,yes_4,im0000014.jpg,N_1.png,1,N_2.png,2,N_3.png,3,N_4.png,4,Y_1.png,1,Y_2.png,2,Y_3.png,3,Y_4.png,4,response_G.png,3,response_S.png,4,Word 4 of 6,1,Image 2 of 3,1,very_global.png,7,very_specific.png,6,less_global.png,9,less_specific.png,8,statue,6,266 masked
979079866,practiceBlock,centre_mouse,10,696,reveal,im0000014.jpg,N_1.png,1,N_2.png,2,N_3.png,3,N_4.png,4,Y_1.png,1,Y_2.png,2,Y_3.png,3,Y_4.png,4,response_G.png,3,response_S.png,4,Word 4 of 6,1,Image 2 of 3,1,very_global.png,7,very_specific.png,6,less_global.png,9,less_specific.png,8,0,0,266 masked
979079866,practiceBlock,practice_trial,11,3098,yes_2,im0000014.jpg,N_1.png,1,N_2.png,2,N_3.png,3,N_4.png,4,Y_1.png,1,Y_2.png,2,Y_3.png,3,Y_4.png,4,response_G.png,3,response_S.png,4,Word 5 of 6,1,Image 2 of 3,1,very_global.png,7,very_specific.png,6,less_global.png,9,less_specific.png,8,bull,2,266 masked
979079866,practiceBlock,centre_mouse,12,629,reveal,im0000014.jpg,N_1.png,1,N_2.png,2,N_3.png,3,N_4.png,4,Y_1.png,1,Y_2.png,2,Y_3.png,3,Y_4.png,4,response_G.png,3,response_S.png,4,Word 5 of 6,1,Image 2 of 3,1,very_global.png,7,very_specific.png,6,less_global.png,9,less_specific.png,8,0,0,266 masked
979079866,practiceBlock,practice_trial,13,1587,no_3,im0000014.jpg,N_1.png,1,N_2.png,2,N_3.png,3,N_4.png,4,Y_1.png,1,Y_2.png,2,Y_3.png,3,Y_4.png,4,response_G.png,3,response_S.png,4,Word 6 of 6,1,Image 2 of 3,1,very_global.png,7,very_specific.png,6,less_global.png,9,less_specific.png,8,gold,4,266 masked
979079866,practiceBlock,centre_mouse,14,713,reveal,im0000014.jpg,N_1.png,1,N_2.png,2,N_3.png,3,N_4.png,4,Y_1.png,1,Y_2.png,2,Y_3.png,3,Y_4.png,4,response_G.png,3,response_S.png,4,Word 6 of 6,1,Image 2 of 3,1,very_global.png,7,very_specific.png,6,less_global.png,9,less_specific.png,8,0,0,266 masked
979079866,practiceBlock,practice,1,0,0,im0000014.jpg,+,1,im0000009.jpg,2,mask3.jpg,3,mask3.jpg,3,mask1.jpg,1,mask4.jpg,4,mask3.jpg,3,0,0,0,0,0,0,0,0,0,0,0,0,0,0,0,0,0,0,0,0,266 masked
979079866,practiceBlock,centre_mouse,2,384,reveal,im0000014.jpg,N_1.png,1,N_2.png,2,N_3.png,3,N_4.png,4,Y_1.png,1,Y_2.png,2,Y_3.png,3,Y_4.png,4,response_G.png,3,response_S.png,4,Word 0 of 6,1,Image 3 of 3,1,very_global.png,7,very_specific.png,6,less_global.png,9,less_specific.png,8,0,0,266 masked
979079866,practiceBlock,practice_trial,3,2115,no_4,im0000009.jpg,N_1.png,1,N_2.png,2,N_3.png,3,N_4.png,4,Y_1.png,1,Y_2.png,2,Y_3.png,3,Y_4.png,4,response_G.png,3,response_S.png,4,Word 1 of 6,1,Image 3 of 3,1,very_global.png,7,very_specific.png,6,less_global.png,9,less_specific.png,8,paddle,5,266 masked
979079866,practiceBlock,centre_mouse,4,716,reveal,im0000009.jpg,N_1.png,1,N_2.png,2,N_3.png,3,N_4.png,4,Y_1.png,1,Y_2.png,2,Y_3.png,3,Y_4.png,4,response_G.png,3,response_S.png,4,Word 1 of 6,1,Image 3 of 3,1,very_global.png,7,very_specific.png,6,less_global.png,9,less_specific.png,8,0,0,266 masked
979079866,practiceBlock,practice_trial,5,3924,no_3,im0000009.jpg,N_1.png,1,N_2.png,2,N_3.png,3,N_4.png,4,Y_1.png,1,Y_2.png,2,Y_3.png,3,Y_4.png,4,response_G.png,3,response_S.png,4,Word 2 of 6,1,Image 3 of 3,1,very_global.png,7,very_specific.png,6,less_global.png,9,less_specific.png,8,man,4,266 masked
979079866,practiceBlock,centre_mouse,6,864,reveal,im0000009.jpg,N_1.png,1,N_2.png,2,N_3.png,3,N_4.png,4,Y_1.png,1,Y_2.png,2,Y_3.png,3,Y_4.png,4,response_G.png,3,response_S.png,4,Word 2 of 6,1,Image 3 of 3,1,very_global.png,7,very_specific.png,6,less_global.png,9,less_specific.png,8,0,0,266 masked
979079866,practiceBlock,practice_trial,7,2206,yes_3,im0000009.jpg,N_1.png,1,N_2.png,2,N_3.png,3,N_4.png,4,Y_1.png,1,Y_2.png,2,Y_3.png,3,Y_4.png,4,response_G.png,3,response_S.png,4,Word 3 of 6,1,Image 3 of 3,1,very_global.png,7,very_specific.png,6,less_global.png,9,less_specific.png,8,adventure,3,266 masked
979079866,practiceBlock,centre_mouse,8,659,reveal,im0000009.jpg,N_1.png,1,N_2.png,2,N_3.png,3,N_4.png,4,Y_1.png,1,Y_2.png,2,Y_3.png,3,Y_4.png,4,response_G.png,3,response_S.png,4,Word 3 of 6,1,Image 3 of 3,1,very_global.png,7,very_specific.png,6,less_global.png,9,less_specific.png,8,0,0,266 masked
979079866,practiceBlock,practice_trial,9,1053,yes_4,im0000009.jpg,N_1.png,1,N_2.png,2,N_3.png,3,N_4.png,4,Y_1.png,1,Y_2.png,2,Y_3.png,3,Y_4.png,4,response_G.png,3,response_S.png,4,Word 4 of 6,1,Image 3 of 3,1,very_global.png,7,very_specific.png,6,less_global.png,9,less_specific.png,8,water,1,266 masked
979079866,practiceBlock,centre_mouse,10,729,reveal,im0000009.jpg,N_1.png,1,N_2.png,2,N_3.png,3,N_4.png,4,Y_1.png,1,Y_2.png,2,Y_3.png,3,Y_4.png,4,response_G.png,3,response_S.png,4,Word 4 of 6,1,Image 3 of 3,1,very_global.png,7,very_specific.png,6,less_global.png,9,less_specific.png,8,0,0,266 masked
979079866,practiceBlock,practice_trial,11,4690,no_4,im0000009.jpg,N_1.png,1,N_2.png,2,N_3.png,3,N_4.png,4,Y_1.png,1,Y_2.png,2,Y_3.png,3,Y_4.png,4,response_G.png,3,response_S.png,4,Word 5 of 6,1,Image 3 of 3,1,very_global.png,7,very_specific.png,6,less_global.png,9,less_specific.png,8,kayaking,2,266 masked
979079866,practiceBlock,centre_mouse,12,879,reveal,im0000009.jpg,N_1.png,1,N_2.png,2,N_3.png,3,N_4.png,4,Y_1.png,1,Y_2.png,2,Y_3.png,3,Y_4.png,4,response_G.png,3,response_S.png,4,Word 5 of 6,1,Image 3 of 3,1,very_global.png,7,very_specific.png,6,less_global.png,9,less_specific.png,8,0,0,266 masked
979079866,practiceBlock,practice_trial,13,948,no_4,im0000009.jpg,N_1.png,1,N_2.png,2,N_3.png,3,N_4.png,4,Y_1.png,1,Y_2.png,2,Y_3.png,3,Y_4.png,4,response_G.png,3,response_S.png,4,Word 6 of 6,1,Image 3 of 3,1,very_global.png,7,very_specific.png,6,less_global.png,9,less_specific.png,8,helmet,6,266 masked
979079866,practiceBlock,centre_mouse,14,765,reveal,im0000009.jpg,N_1.png,1,N_2.png,2,N_3.png,3,N_4.png,4,Y_1.png,1,Y_2.png,2,Y_3.png,3,Y_4.png,4,response_G.png,3,response_S.png,4,Word 6 of 6,1,Image 3 of 3,1,very_global.png,7,very_specific.png,6,less_global.png,9,less_specific.png,8,0,0,266 masked
979079866,reset,reset,1,200,0,im0000009.jpg,0,0,0,0,0,0,0,0,0,0,0,0,0,0,0,0,0,0,0,0,0,0,0,0,0,0,0,0,0,0,0,0,0,0,266 masked
979079866,reminder_start,reminder_start,1,831,reveal,im0000009.jpg,Click the center square to proceed to the REAL trials,1,reveal.png,5,0,0,0,0,0,0,0,0,0,0,0,0,0,0,0,0,0,0,0,0,0,0,0,0,0,0,0,0,0,0,266 masked
979079866,testBlock,test,1,0,0,im0000041.jpg,+,1,im0000041.jpg,1,mask1.jpg,1,mask4.jpg,4,mask3.jpg,3,mask3.jpg,3,mask5.jpg,5,0,0,0,0,0,0,0,0,0,0,0,0,0,0,0,0,0,0,0,0,266 masked
979079866,testBlock,centre_mouse,2,587,reveal,im0000041.jpg,N_1.png,1,N_2.png,2,N_3.png,3,N_4.png,4,Y_1.png,1,Y_2.png,2,Y_3.png,3,Y_4.png,4,response_G.png,3,response_S.png,4,Word 0 of 6,1,Image 1 of 40,1,very_global.png,7,very_specific.png,6,less_global.png,9,less_specific.png,8,0,0,266 masked
979079866,testBlock,present_trial,3,3751,yes_4,im0000041.jpg,N_1.png,1,N_2.png,2,N_3.png,3,N_4.png,4,Y_1.png,1,Y_2.png,2,Y_3.png,3,Y_4.png,4,response_G.png,3,response_S.png,4,Word 1 of 6,1,Image 1 of 40,1,very_global.png,7,very_specific.png,6,less_global.png,9,less_specific.png,8,sunny,5,266 masked
979079866,testBlock,centre_mouse,4,838,reveal,im0000041.jpg,N_1.png,1,N_2.png,2,N_3.png,3,N_4.png,4,Y_1.png,1,Y_2.png,2,Y_3.png,3,Y_4.png,4,response_G.png,3,response_S.png,4,Word 1 of 6,1,Image 1 of 40,1,very_global.png,7,very_specific.png,6,less_global.png,9,less_specific.png,8,0,0,266 masked
979079866,testBlock,present_trial,5,1636,yes_3,im0000041.jpg,N_1.png,1,N_2.png,2,N_3.png,3,N_4.png,4,Y_1.png,1,Y_2.png,2,Y_3.png,3,Y_4.png,4,response_G.png,3,response_S.png,4,Word 2 of 6,1,Image 1 of 40,1,very_global.png,7,very_specific.png,6,less_global.png,9,less_specific.png,8,horse,4,266 masked
979079866,testBlock,centre_mouse,6,697,reveal,im0000041.jpg,N_1.png,1,N_2.png,2,N_3.png,3,N_4.png,4,Y_1.png,1,Y_2.png,2,Y_3.png,3,Y_4.png,4,response_G.png,3,response_S.png,4,Word 2 of 6,1,Image 1 of 40,1,very_global.png,7,very_specific.png,6,less_global.png,9,less_specific.png,8,0,0,266 masked
979079866,testBlock,present_trial,7,1302,yes_4,im0000041.jpg,N_1.png,1,N_2.png,2,N_3.png,3,N_4.png,4,Y_1.png,1,Y_2.png,2,Y_3.png,3,Y_4.png,4,response_G.png,3,response_S.png,4,Word 3 of 6,1,Image 1 of 40,1,very_global.png,7,very_specific.png,6,less_global.png,9,less_specific.png,8,farm,2,266 masked
979079866,testBlock,centre_mouse,8,875,reveal,im0000041.jpg,N_1.png,1,N_2.png,2,N_3.png,3,N_4.png,4,Y_1.png,1,Y_2.png,2,Y_3.png,3,Y_4.png,4,response_G.png,3,response_S.png,4,Word 3 of 6,1,Image 1 of 40,1,very_global.png,7,very_specific.png,6,less_global.png,9,less_specific.png,8,0,0,266 masked
979079866,testBlock,present_trial,9,1148,yes_4,im0000041.jpg,N_1.png,1,N_2.png,2,N_3.png,3,N_4.png,4,Y_1.png,1,Y_2.png,2,Y_3.png,3,Y_4.png,4,response_G.png,3,response_S.png,4,Word 4 of 6,1,Image 1 of 40,1,very_global.png,7,very_specific.png,6,less_global.png,9,less_specific.png,8,green,6,266 masked
979079866,testBlock,centre_mouse,10,659,reveal,im0000041.jpg,N_1.png,1,N_2.png,2,N_3.png,3,N_4.png,4,Y_1.png,1,Y_2.png,2,Y_3.png,3,Y_4.png,4,response_G.png,3,response_S.png,4,Word 4 of 6,1,Image 1 of 40,1,very_global.png,7,very_specific.png,6,less_global.png,9,less_specific.png,8,0,0,266 masked
979079866,testBlock,present_trial,11,915,no_4,im0000041.jpg,N_1.png,1,N_2.png,2,N_3.png,3,N_4.png,4,Y_1.png,1,Y_2.png,2,Y_3.png,3,Y_4.png,4,response_G.png,3,response_S.png,4,Word 5 of 6,1,Image 1 of 40,1,very_global.png,7,very_specific.png,6,less_global.png,9,less_specific.png,8,pasture,3,266 masked
979079866,testBlock,centre_mouse,12,602,reveal,im0000041.jpg,N_1.png,1,N_2.png,2,N_3.png,3,N_4.png,4,Y_1.png,1,Y_2.png,2,Y_3.png,3,Y_4.png,4,response_G.png,3,response_S.png,4,Word 5 of 6,1,Image 1 of 40,1,very_global.png,7,very_specific.png,6,less_global.png,9,less_specific.png,8,0,0,266 masked
979079866,testBlock,present_trial,13,588,no_4,im0000041.jpg,N_1.png,1,N_2.png,2,N_3.png,3,N_4.png,4,Y_1.png,1,Y_2.png,2,Y_3.png,3,Y_4.png,4,response_G.png,3,response_S.png,4,Word 6 of 6,1,Image 1 of 40,1,very_global.png,7,very_specific.png,6,less_global.png,9,less_specific.png,8,cow,1,266 masked
979079866,testBlock,centre_mouse,14,1401,reveal,im0000041.jpg,N_1.png,1,N_2.png,2,N_3.png,3,N_4.png,4,Y_1.png,1,Y_2.png,2,Y_3.png,3,Y_4.png,4,response_G.png,3,response_S.png,4,Word 6 of 6,1,Image 1 of 40,1,very_global.png,7,very_specific.png,6,less_global.png,9,less_specific.png,8,0,0,266 masked
979079866,testBlock,test,1,0,0,im0000041.jpg,+,1,im0000332.jpg,32,mask2.jpg,2,mask2.jpg,2,mask4.jpg,4,mask1.jpg,1,mask4.jpg,4,0,0,0,0,0,0,0,0,0,0,0,0,0,0,0,0,0,0,0,0,266 masked
979079866,testBlock,centre_mouse,2,1957,reveal,im0000041.jpg,N_1.png,1,N_2.png,2,N_3.png,3,N_4.png,4,Y_1.png,1,Y_2.png,2,Y_3.png,3,Y_4.png,4,response_G.png,3,response_S.png,4,Word 0 of 6,1,Image 2 of 40,1,very_global.png,7,very_specific.png,6,less_global.png,9,less_specific.png,8,0,0,266 masked
979079866,testBlock,present_trial,3,2873,Ctrl+'Q',im0000332.jpg,N_1.png,1,N_2.png,2,N_3.png,3,N_4.png,4,Y_1.png,1,Y_2.png,2,Y_3.png,3,Y_4.png,4,response_G.png,3,response_S.png,4,Word 1 of 6,1,Image 2 of 40,1,very_global.png,7,very_specific.png,6,less_global.png,9,less_specific.png,8,mall,1,266 masked
89643498,reminder_practice,reminder_practice,1,3860,reveal,placeholder_image,Click the center square to proceed to the PRACTICE trials,1,reveal.png,5,0,0,0,0,0,0,0,0,0,0,0,0,0,0,0,0,0,0,0,0,0,0,0,0,0,0,0,0,0,0,266 masked
89643498,practiceBlock,practice,1,0,0,im0000003.jpg,+,1,im0000003.jpg,1,mask4.jpg,4,mask5.jpg,5,mask5.jpg,5,mask5.jpg,5,mask2.jpg,2,0,0,0,0,0,0,0,0,0,0,0,0,0,0,0,0,0,0,0,0,266 masked
89643498,practiceBlock,centre_mouse,2,10974,reveal,im0000003.jpg,N_1.png,1,N_2.png,2,N_3.png,3,N_4.png,4,Y_1.png,1,Y_2.png,2,Y_3.png,3,Y_4.png,4,response_G.png,3,response_S.png,4,Word 0 of 6,1,Image 1 of 3,1,very_global.png,7,very_specific.png,6,less_global.png,9,less_specific.png,8,0,0,266 masked
89643498,practiceBlock,practice_trial,3,2830,yes_2,im0000003.jpg,N_1.png,1,N_2.png,2,N_3.png,3,N_4.png,4,Y_1.png,1,Y_2.png,2,Y_3.png,3,Y_4.png,4,response_G.png,3,response_S.png,4,Word 1 of 6,1,Image 1 of 3,1,very_global.png,7,very_specific.png,6,less_global.png,9,less_specific.png,8,street,3,266 masked
89643498,practiceBlock,centre_mouse,4,1489,reveal,im0000003.jpg,N_1.png,1,N_2.png,2,N_3.png,3,N_4.png,4,Y_1.png,1,Y_2.png,2,Y_3.png,3,Y_4.png,4,response_G.png,3,response_S.png,4,Word 1 of 6,1,Image 1 of 3,1,very_global.png,7,very_specific.png,6,less_global.png,9,less_specific.png,8,0,0,266 masked
89643498,practiceBlock,practice_trial,5,1508,yes_4,im0000003.jpg,N_1.png,1,N_2.png,2,N_3.png,3,N_4.png,4,Y_1.png,1,Y_2.png,2,Y_3.png,3,Y_4.png,4,response_G.png,3,response_S.png,4,Word 2 of 6,1,Image 1 of 3,1,very_global.png,7,very_specific.png,6,less_global.png,9,less_specific.png,8,sky,2,266 masked
89643498,practiceBlock,centre_mouse,6,4444,reveal,im0000003.jpg,N_1.png,1,N_2.png,2,N_3.png,3,N_4.png,4,Y_1.png,1,Y_2.png,2,Y_3.png,3,Y_4.png,4,response_G.png,3,response_S.png,4,Word 2 of 6,1,Image 1 of 3,1,very_global.png,7,very_specific.png,6,less_global.png,9,less_specific.png,8,0,0,266 masked
89643498,practiceBlock,practice_trial,7,2962,yes_2,im0000003.jpg,N_1.png,1,N_2.png,2,N_3.png,3,N_4.png,4,Y_1.png,1,Y_2.png,2,Y_3.png,3,Y_4.png,4,response_G.png,3,response_S.png,4,Word 3 of 6,1,Image 1 of 3,1,very_global.png,7,very_specific.png,6,less_global.png,9,less_specific.png,8,people,5,266 masked
89643498,practiceBlock,centre_mouse,8,9710,reveal,im0000003.jpg,N_1.png,1,N_2.png,2,N_3.png,3,N_4.png,4,Y_1.png,1,Y_2.png,2,Y_3.png,3,Y_4.png,4,response_G.png,3,response_S.png,4,Word 3 of 6,1,Image 1 of 3,1,very_global.png,7,very_specific.png,6,less_global.png,9,less_specific.png,8,0,0,266 masked
89643498,practiceBlock,practice_trial,9,2146,yes_2,im0000003.jpg,N_1.png,1,N_2.png,2,N_3.png,3,N_4.png,4,Y_1.png,1,Y_2.png,2,Y_3.png,3,Y_4.png,4,response_G.png,3,response_S.png,4,Word 4 of 6,1,Image 1 of 3,1,very_global.png,7,very_specific.png,6,less_global.png,9,less_specific.png,8,village,1,266 masked
89643498,practiceBlock,centre_mouse,10,807,reveal,im0000003.jpg,N_1.png,1,N_2.png,2,N_3.png,3,N_4.png,4,Y_1.png,1,Y_2.png,2,Y_3.png,3,Y_4.png,4,response_G.png,3,response_S.png,4,Word 4 of 6,1,Image 1 of 3,1,very_global.png,7,very_specific.png,6,less_global.png,9,less_specific.png,8,0,0,266 masked
89643498,practiceBlock,practice_trial,11,3623,no_3,im0000003.jpg,N_1.png,1,N_2.png,2,N_3.png,3,N_4.png,4,Y_1.png,1,Y_2.png,2,Y_3.png,3,Y_4.png,4,response_G.png,3,response_S.png,4,Word 5 of 6,1,Image 1 of 3,1,very_global.png,7,very_specific.png,6,less_global.png,9,less_specific.png,8,walk,4,266 masked
89643498,practiceBlock,centre_mouse,12,770,reveal,im0000003.jpg,N_1.png,1,N_2.png,2,N_3.png,3,N_4.png,4,Y_1.png,1,Y_2.png,2,Y_3.png,3,Y_4.png,4,response_G.png,3,response_S.png,4,Word 5 of 6,1,Image 1 of 3,1,very_global.png,7,very_specific.png,6,less_global.png,9,less_specific.png,8,0,0,266 masked
89643498,practiceBlock,practice_trial,13,1679,no_4,im0000003.jpg,N_1.png,1,N_2.png,2,N_3.png,3,N_4.png,4,Y_1.png,1,Y_2.png,2,Y_3.png,3,Y_4.png,4,response_G.png,3,response_S.png,4,Word 6 of 6,1,Image 1 of 3,1,very_global.png,7,very_specific.png,6,less_global.png,9,less_specific.png,8,calm,6,266 masked
89643498,practiceBlock,centre_mouse,14,640,reveal,im0000003.jpg,N_1.png,1,N_2.png,2,N_3.png,3,N_4.png,4,Y_1.png,1,Y_2.png,2,Y_3.png,3,Y_4.png,4,response_G.png,3,response_S.png,4,Word 6 of 6,1,Image 1 of 3,1,very_global.png,7,very_specific.png,6,less_global.png,9,less_specific.png,8,0,0,266 masked
89643498,practiceBlock,practice,1,0,0,im0000003.jpg,+,1,im0000009.jpg,2,mask1.jpg,1,mask1.jpg,1,mask1.jpg,1,mask2.jpg,2,mask5.jpg,5,0,0,0,0,0,0,0,0,0,0,0,0,0,0,0,0,0,0,0,0,266 masked
89643498,practiceBlock,centre_mouse,2,5239,reveal,im0000003.jpg,N_1.png,1,N_2.png,2,N_3.png,3,N_4.png,4,Y_1.png,1,Y_2.png,2,Y_3.png,3,Y_4.png,4,response_G.png,3,response_S.png,4,Word 0 of 6,1,Image 2 of 3,1,very_global.png,7,very_specific.png,6,less_global.png,9,less_specific.png,8,0,0,266 masked
89643498,practiceBlock,practice_trial,3,1567,no_4,im0000009.jpg,N_1.png,1,N_2.png,2,N_3.png,3,N_4.png,4,Y_1.png,1,Y_2.png,2,Y_3.png,3,Y_4.png,4,response_G.png,3,response_S.png,4,Word 1 of 6,1,Image 2 of 3,1,very_global.png,7,very_specific.png,6,less_global.png,9,less_specific.png,8,kayaking,2,266 masked
89643498,practiceBlock,centre_mouse,4,639,reveal,im0000009.jpg,N_1.png,1,N_2.png,2,N_3.png,3,N_4.png,4,Y_1.png,1,Y_2.png,2,Y_3.png,3,Y_4.png,4,response_G.png,3,response_S.png,4,Word 1 of 6,1,Image 2 of 3,1,very_global.png,7,very_specific.png,6,less_global.png,9,less_specific.png,8,0,0,266 masked
89643498,practiceBlock,practice_trial,5,847,no_3,im0000009.jpg,N_1.png,1,N_2.png,2,N_3.png,3,N_4.png,4,Y_1.png,1,Y_2.png,2,Y_3.png,3,Y_4.png,4,response_G.png,3,response_S.png,4,Word 2 of 6,1,Image 2 of 3,1,very_global.png,7,very_specific.png,6,less_global.png,9,less_specific.png,8,adventure,3,266 masked
89643498,practiceBlock,centre_mouse,6,476,reveal,im0000009.jpg,N_1.png,1,N_2.png,2,N_3.png,3,N_4.png,4,Y_1.png,1,Y_2.png,2,Y_3.png,3,Y_4.png,4,response_G.png,3,response_S.png,4,Word 2 of 6,1,Image 2 of 3,1,very_global.png,7,very_specific.png,6,less_global.png,9,less_specific.png,8,0,0,266 masked
89643498,practiceBlock,practice_trial,7,923,no_4,im0000009.jpg,N_1.png,1,N_2.png,2,N_3.png,3,N_4.png,4,Y_1.png,1,Y_2.png,2,Y_3.png,3,Y_4.png,4,response_G.png,3,response_S.png,4,Word 3 of 6,1,Image 2 of 3,1,very_global.png,7,very_specific.png,6,less_global.png,9,less_specific.png,8,helmet,6,266 masked
89643498,practiceBlock,centre_mouse,8,477,reveal,im0000009.jpg,N_1.png,1,N_2.png,2,N_3.png,3,N_4.png,4,Y_1.png,1,Y_2.png,2,Y_3.png,3,Y_4.png,4,response_G.png,3,response_S.png,4,Word 3 of 6,1,Image 2 of 3,1,very_global.png,7,very_specific.png,6,less_global.png,9,less_specific.png,8,0,0,266 masked
89643498,practiceBlock,practice_trial,9,1049,no_4,im0000009.jpg,N_1.png,1,N_2.png,2,N_3.png,3,N_4.png,4,Y_1.png,1,Y_2.png,2,Y_3.png,3,Y_4.png,4,response_G.png,3,response_S.png,4,Word 4 of 6,1,Image 2 of 3,1,very_global.png,7,very_specific.png,6,less_global.png,9,less_specific.png,8,paddle,5,266 masked
89643498,practiceBlock,centre_mouse,10,547,reveal,im0000009.jpg,N_1.png,1,N_2.png,2,N_3.png,3,N_4.png,4,Y_1.png,1,Y_2.png,2,Y_3.png,3,Y_4.png,4,response_G.png,3,response_S.png,4,Word 4 of 6,1,Image 2 of 3,1,very_global.png,7,very_specific.png,6,less_global.png,9,less_specific.png,8,0,0,266 masked
89643498,practiceBlock,practice_trial,11,690,no_4,im0000009.jpg,N_1.png,1,N_2.png,2,N_3.png,3,N_4.png,4,Y_1.png,1,Y_2.png,2,Y_3.png,3,Y_4.png,4,response_G.png,3,response_S.png,4,Word 5 of 6,1,Image 2 of 3,1,very_global.png,7,very_specific.png,6,less_global.png,9,less_specific.png,8,man,4,266 masked
89643498,practiceBlock,centre_mouse,12,505,reveal,im0000009.jpg,N_1.png,1,N_2.png,2,N_3.png,3,N_4.png,4,Y_1.png,1,Y_2.png,2,Y_3.png,3,Y_4.png,4,response_G.png,3,response_S.png,4,Word 5 of 6,1,Image 2 of 3,1,very_global.png,7,very_specific.png,6,less_global.png,9,less_specific.png,8,0,0,266 masked
89643498,practiceBlock,practice_trial,13,994,yes_2,im0000009.jpg,N_1.png,1,N_2.png,2,N_3.png,3,N_4.png,4,Y_1.png,1,Y_2.png,2,Y_3.png,3,Y_4.png,4,response_G.png,3,response_S.png,4,Word 6 of 6,1,Image 2 of 3,1,very_global.png,7,very_specific.png,6,less_global.png,9,less_specific.png,8,water,1,266 masked
89643498,practiceBlock,centre_mouse,14,428,reveal,im0000009.jpg,N_1.png,1,N_2.png,2,N_3.png,3,N_4.png,4,Y_1.png,1,Y_2.png,2,Y_3.png,3,Y_4.png,4,response_G.png,3,response_S.png,4,Word 6 of 6,1,Image 2 of 3,1,very_global.png,7,very_specific.png,6,less_global.png,9,less_specific.png,8,0,0,266 masked
89643498,practiceBlock,practice,1,0,0,im0000009.jpg,+,1,im0000014.jpg,3,mask5.jpg,5,mask3.jpg,3,mask3.jpg,3,mask3.jpg,3,mask3.jpg,3,0,0,0,0,0,0,0,0,0,0,0,0,0,0,0,0,0,0,0,0,266 masked
89643498,practiceBlock,centre_mouse,2,1356,reveal,im0000009.jpg,N_1.png,1,N_2.png,2,N_3.png,3,N_4.png,4,Y_1.png,1,Y_2.png,2,Y_3.png,3,Y_4.png,4,response_G.png,3,response_S.png,4,Word 0 of 6,1,Image 3 of 3,1,very_global.png,7,very_specific.png,6,less_global.png,9,less_specific.png,8,0,0,266 masked
89643498,practiceBlock,practice_trial,3,1536,yes_2,im0000014.jpg,N_1.png,1,N_2.png,2,N_3.png,3,N_4.png,4,Y_1.png,1,Y_2.png,2,Y_3.png,3,Y_4.png,4,response_G.png,3,response_S.png,4,Word 1 of 6,1,Image 3 of 3,1,very_global.png,7,very_specific.png,6,less_global.png,9,less_specific.png,8,tourist,5,266 masked
89643498,practiceBlock,centre_mouse,4,470,reveal,im0000014.jpg,N_1.png,1,N_2.png,2,N_3.png,3,N_4.png,4,Y_1.png,1,Y_2.png,2,Y_3.png,3,Y_4.png,4,response_G.png,3,response_S.png,4,Word 1 of 6,1,Image 3 of 3,1,very_global.png,7,very_specific.png,6,less_global.png,9,less_specific.png,8,0,0,266 masked
89643498,practiceBlock,practice_trial,5,1358,yes_2,im0000014.jpg,N_1.png,1,N_2.png,2,N_3.png,3,N_4.png,4,Y_1.png,1,Y_2.png,2,Y_3.png,3,Y_4.png,4,response_G.png,3,response_S.png,4,Word 2 of 6,1,Image 3 of 3,1,very_global.png,7,very_specific.png,6,less_global.png,9,less_specific.png,8,statue,6,266 masked
89643498,practiceBlock,centre_mouse,6,406,reveal,im0000014.jpg,N_1.png,1,N_2.png,2,N_3.png,3,N_4.png,4,Y_1.png,1,Y_2.png,2,Y_3.png,3,Y_4.png,4,response_G.png,3,response_S.png,4,Word 2 of 6,1,Image 3 of 3,1,very_global.png,7,very_specific.png,6,less_global.png,9,less_specific.png,8,0,0,266 masked
89643498,practiceBlock,practice_trial,7,1268,yes_2,im0000014.jpg,N_1.png,1,N_2.png,2,N_3.png,3,N_4.png,4,Y_1.png,1,Y_2.png,2,Y_3.png,3,Y_4.png,4,response_G.png,3,response_S.png,4,Word 3 of 6,1,Image 3 of 3,1,very_global.png,7,very_specific.png,6,less_global.png,9,less_specific.png,8,people,3,266 masked
89643498,practiceBlock,centre_mouse,8,426,reveal,im0000014.jpg,N_1.png,1,N_2.png,2,N_3.png,3,N_4.png,4,Y_1.png,1,Y_2.png,2,Y_3.png,3,Y_4.png,4,response_G.png,3,response_S.png,4,Word 3 of 6,1,Image 3 of 3,1,very_global.png,7,very_specific.png,6,less_global.png,9,less_specific.png,8,0,0,266 masked
89643498,practiceBlock,practice_trial,9,1956,no_3,im0000014.jpg,N_1.png,1,N_2.png,2,N_3.png,3,N_4.png,4,Y_1.png,1,Y_2.png,2,Y_3.png,3,Y_4.png,4,response_G.png,3,response_S.png,4,Word 4 of 6,1,Image 3 of 3,1,very_global.png,7,very_specific.png,6,less_global.png,9,less_specific.png,8,gold,4,266 masked
89643498,practiceBlock,centre_mouse,10,17246,reveal,im0000014.jpg,N_1.png,1,N_2.png,2,N_3.png,3,N_4.png,4,Y_1.png,1,Y_2.png,2,Y_3.png,3,Y_4.png,4,response_G.png,3,response_S.png,4,Word 4 of 6,1,Image 3 of 3,1,very_global.png,7,very_specific.png,6,less_global.png,9,less_specific.png,8,0,0,266 masked
89643498,practiceBlock,practice_trial,11,2230,no_3,im0000014.jpg,N_1.png,1,N_2.png,2,N_3.png,3,N_4.png,4,Y_1.png,1,Y_2.png,2,Y_3.png,3,Y_4.png,4,response_G.png,3,response_S.png,4,Word 5 of 6,1,Image 3 of 3,1,very_global.png,7,very_specific.png,6,less_global.png,9,less_specific.png,8,bull,2,266 masked
89643498,practiceBlock,centre_mouse,12,468,reveal,im0000014.jpg,N_1.png,1,N_2.png,2,N_3.png,3,N_4.png,4,Y_1.png,1,Y_2.png,2,Y_3.png,3,Y_4.png,4,response_G.png,3,response_S.png,4,Word 5 of 6,1,Image 3 of 3,1,very_global.png,7,very_specific.png,6,less_global.png,9,less_specific.png,8,0,0,266 masked
89643498,practiceBlock,practice_trial,13,1264,no_2,im0000014.jpg,N_1.png,1,N_2.png,2,N_3.png,3,N_4.png,4,Y_1.png,1,Y_2.png,2,Y_3.png,3,Y_4.png,4,response_G.png,3,response_S.png,4,Word 6 of 6,1,Image 3 of 3,1,very_global.png,7,very_specific.png,6,less_global.png,9,less_specific.png,8,crowd,1,266 masked
89643498,practiceBlock,centre_mouse,14,572,reveal,im0000014.jpg,N_1.png,1,N_2.png,2,N_3.png,3,N_4.png,4,Y_1.png,1,Y_2.png,2,Y_3.png,3,Y_4.png,4,response_G.png,3,response_S.png,4,Word 6 of 6,1,Image 3 of 3,1,very_global.png,7,very_specific.png,6,less_global.png,9,less_specific.png,8,0,0,266 masked
89643498,reset,reset,1,200,0,im0000014.jpg,0,0,0,0,0,0,0,0,0,0,0,0,0,0,0,0,0,0,0,0,0,0,0,0,0,0,0,0,0,0,0,0,0,0,266 masked
89643498,reminder_start,reminder_start,1,1149,reveal,im0000014.jpg,Click the center square to proceed to the REAL trials,1,reveal.png,5,0,0,0,0,0,0,0,0,0,0,0,0,0,0,0,0,0,0,0,0,0,0,0,0,0,0,0,0,0,0,266 masked
89643498,testBlock,test,1,0,0,im0000041.jpg,+,1,im0000126.jpg,12,mask3.jpg,3,mask4.jpg,4,mask2.jpg,2,mask4.jpg,4,mask1.jpg,1,0,0,0,0,0,0,0,0,0,0,0,0,0,0,0,0,0,0,0,0,266 masked
89643498,testBlock,centre_mouse,2,1417,reveal,im0000041.jpg,N_1.png,1,N_2.png,2,N_3.png,3,N_4.png,4,Y_1.png,1,Y_2.png,2,Y_3.png,3,Y_4.png,4,response_G.png,3,response_S.png,4,Word 0 of 6,1,Image 1 of 40,1,very_global.png,7,very_specific.png,6,less_global.png,9,less_specific.png,8,0,0,266 masked
89643498,testBlock,present_trial,3,3179,no_3,im0000126.jpg,N_1.png,1,N_2.png,2,N_3.png,3,N_4.png,4,Y_1.png,1,Y_2.png,2,Y_3.png,3,Y_4.png,4,response_G.png,3,response_S.png,4,Word 1 of 6,1,Image 1 of 40,1,very_global.png,7,very_specific.png,6,less_global.png,9,less_specific.png,8,write,4,266 masked
89643498,testBlock,centre_mouse,4,356,reveal,im0000126.jpg,N_1.png,1,N_2.png,2,N_3.png,3,N_4.png,4,Y_1.png,1,Y_2.png,2,Y_3.png,3,Y_4.png,4,response_G.png,3,response_S.png,4,Word 1 of 6,1,Image 1 of 40,1,very_global.png,7,very_specific.png,6,less_global.png,9,less_specific.png,8,0,0,266 masked
89643498,testBlock,present_trial,5,5137,no_4,im0000126.jpg,N_1.png,1,N_2.png,2,N_3.png,3,N_4.png,4,Y_1.png,1,Y_2.png,2,Y_3.png,3,Y_4.png,4,response_G.png,3,response_S.png,4,Word 2 of 6,1,Image 1 of 40,1,very_global.png,7,very_specific.png,6,less_global.png,9,less_specific.png,8,paper,5,266 masked
89643498,testBlock,centre_mouse,6,380,reveal,im0000126.jpg,N_1.png,1,N_2.png,2,N_3.png,3,N_4.png,4,Y_1.png,1,Y_2.png,2,Y_3.png,3,Y_4.png,4,response_G.png,3,response_S.png,4,Word 2 of 6,1,Image 1 of 40,1,very_global.png,7,very_specific.png,6,less_global.png,9,less_specific.png,8,0,0,266 masked
89643498,testBlock,present_trial,7,815,no_4,im0000126.jpg,N_1.png,1,N_2.png,2,N_3.png,3,N_4.png,4,Y_1.png,1,Y_2.png,2,Y_3.png,3,Y_4.png,4,response_G.png,3,response_S.png,4,Word 3 of 6,1,Image 1 of 40,1,very_global.png,7,very_specific.png,6,less_global.png,9,less_specific.png,8,girl,6,266 masked
89643498,testBlock,centre_mouse,8,319,reveal,im0000126.jpg,N_1.png,1,N_2.png,2,N_3.png,3,N_4.png,4,Y_1.png,1,Y_2.png,2,Y_3.png,3,Y_4.png,4,response_G.png,3,response_S.png,4,Word 3 of 6,1,Image 1 of 40,1,very_global.png,7,very_specific.png,6,less_global.png,9,less_specific.png,8,0,0,266 masked
89643498,testBlock,present_trial,9,537,no_4,im0000126.jpg,N_1.png,1,N_2.png,2,N_3.png,3,N_4.png,4,Y_1.png,1,Y_2.png,2,Y_3.png,3,Y_4.png,4,response_G.png,3,response_S.png,4,Word 4 of 6,1,Image 1 of 40,1,very_global.png,7,very_specific.png,6,less_global.png,9,less_specific.png,8,study,1,266 masked
89643498,testBlock,centre_mouse,10,464,reveal,im0000126.jpg,N_1.png,1,N_2.png,2,N_3.png,3,N_4.png,4,Y_1.png,1,Y_2.png,2,Y_3.png,3,Y_4.png,4,response_G.png,3,response_S.png,4,Word 4 of 6,1,Image 1 of 40,1,very_global.png,7,very_specific.png,6,less_global.png,9,less_specific.png,8,0,0,266 masked
89643498,testBlock,present_trial,11,1115,no_2,im0000126.jpg,N_1.png,1,N_2.png,2,N_3.png,3,N_4.png,4,Y_1.png,1,Y_2.png,2,Y_3.png,3,Y_4.png,4,response_G.png,3,response_S.png,4,Word 5 of 6,1,Image 1 of 40,1,very_global.png,7,very_specific.png,6,less_global.png,9,less_specific.png,8,pen,2,266 masked
89643498,testBlock,centre_mouse,12,371,reveal,im0000126.jpg,N_1.png,1,N_2.png,2,N_3.png,3,N_4.png,4,Y_1.png,1,Y_2.png,2,Y_3.png,3,Y_4.png,4,response_G.png,3,response_S.png,4,Word 5 of 6,1,Image 1 of 40,1,very_global.png,7,very_specific.png,6,less_global.png,9,less_specific.png,8,0,0,266 masked
89643498,testBlock,present_trial,13,1274,no_4,im0000126.jpg,N_1.png,1,N_2.png,2,N_3.png,3,N_4.png,4,Y_1.png,1,Y_2.png,2,Y_3.png,3,Y_4.png,4,response_G.png,3,response_S.png,4,Word 6 of 6,1,Image 1 of 40,1,very_global.png,7,very_specific.png,6,less_global.png,9,less_specific.png,8,desk,3,266 masked
89643498,testBlock,centre_mouse,14,515,reveal,im0000126.jpg,N_1.png,1,N_2.png,2,N_3.png,3,N_4.png,4,Y_1.png,1,Y_2.png,2,Y_3.png,3,Y_4.png,4,response_G.png,3,response_S.png,4,Word 6 of 6,1,Image 1 of 40,1,very_global.png,7,very_specific.png,6,less_global.png,9,less_specific.png,8,0,0,266 masked
89643498,testBlock,test,1,0,0,im0000126.jpg,+,1,im0000245.jpg,20,mask2.jpg,2,mask2.jpg,2,mask4.jpg,4,mask1.jpg,1,mask4.jpg,4,0,0,0,0,0,0,0,0,0,0,0,0,0,0,0,0,0,0,0,0,266 masked
89643498,testBlock,centre_mouse,2,851,reveal,im0000126.jpg,N_1.png,1,N_2.png,2,N_3.png,3,N_4.png,4,Y_1.png,1,Y_2.png,2,Y_3.png,3,Y_4.png,4,response_G.png,3,response_S.png,4,Word 0 of 6,1,Image 2 of 40,1,very_global.png,7,very_specific.png,6,less_global.png,9,less_specific.png,8,0,0,266 masked
89643498,testBlock,present_trial,3,1098,yes_2,im0000245.jpg,N_1.png,1,N_2.png,2,N_3.png,3,N_4.png,4,Y_1.png,1,Y_2.png,2,Y_3.png,3,Y_4.png,4,response_G.png,3,response_S.png,4,Word 1 of 6,1,Image 2 of 40,1,very_global.png,7,very_specific.png,6,less_global.png,9,less_specific.png,8,talk,6,266 masked
89643498,testBlock,centre_mouse,4,618,reveal,im0000245.jpg,N_1.png,1,N_2.png,2,N_3.png,3,N_4.png,4,Y_1.png,1,Y_2.png,2,Y_3.png,3,Y_4.png,4,response_G.png,3,response_S.png,4,Word 1 of 6,1,Image 2 of 40,1,very_global.png,7,very_specific.png,6,less_global.png,9,less_specific.png,8,0,0,266 masked
89643498,testBlock,present_trial,5,1216,no_2,im0000245.jpg,N_1.png,1,N_2.png,2,N_3.png,3,N_4.png,4,Y_1.png,1,Y_2.png,2,Y_3.png,3,Y_4.png,4,response_G.png,3,response_S.png,4,Word 2 of 6,1,Image 2 of 40,1,very_global.png,7,very_specific.png,6,less_global.png,9,less_specific.png,8,stool,5,266 masked
89643498,testBlock,centre_mouse,6,352,reveal,im0000245.jpg,N_1.png,1,N_2.png,2,N_3.png,3,N_4.png,4,Y_1.png,1,Y_2.png,2,Y_3.png,3,Y_4.png,4,response_G.png,3,response_S.png,4,Word 2 of 6,1,Image 2 of 40,1,very_global.png,7,very_specific.png,6,less_global.png,9,less_specific.png,8,0,0,266 masked
89643498,testBlock,present_trial,7,749,no_2,im0000245.jpg,N_1.png,1,N_2.png,2,N_3.png,3,N_4.png,4,Y_1.png,1,Y_2.png,2,Y_3.png,3,Y_4.png,4,response_G.png,3,response_S.png,4,Word 3 of 6,1,Image 2 of 40,1,very_global.png,7,very_specific.png,6,less_global.png,9,less_specific.png,8,relax,1,266 masked
89643498,testBlock,centre_mouse,8,362,reveal,im0000245.jpg,N_1.png,1,N_2.png,2,N_3.png,3,N_4.png,4,Y_1.png,1,Y_2.png,2,Y_3.png,3,Y_4.png,4,response_G.png,3,response_S.png,4,Word 3 of 6,1,Image 2 of 40,1,very_global.png,7,very_specific.png,6,less_global.png,9,less_specific.png,8,0,0,266 masked
89643498,testBlock,present_trial,9,442,no_2,im0000245.jpg,N_1.png,1,N_2.png,2,N_3.png,3,N_4.png,4,Y_1.png,1,Y_2.png,2,Y_3.png,3,Y_4.png,4,response_G.png,3,response_S.png,4,Word 4 of 6,1,Image 2 of 40,1,very_global.png,7,very_specific.png,6,less_global.png,9,less_specific.png,8,sit,2,266 masked
89643498,testBlock,centre_mouse,10,306,reveal,im0000245.jpg,N_1.png,1,N_2.png,2,N_3.png,3,N_4.png,4,Y_1.png,1,Y_2.png,2,Y_3.png,3,Y_4.png,4,response_G.png,3,response_S.png,4,Word 4 of 6,1,Image 2 of 40,1,very_global.png,7,very_specific.png,6,less_global.png,9,less_specific.png,8,0,0,266 masked
89643498,testBlock,present_trial,11,656,no_3,im0000245.jpg,N_1.png,1,N_2.png,2,N_3.png,3,N_4.png,4,Y_1.png,1,Y_2.png,2,Y_3.png,3,Y_4.png,4,response_G.png,3,response_S.png,4,Word 5 of 6,1,Image 2 of 40,1,very_global.png,7,very_specific.png,6,less_global.png,9,less_specific.png,8,socialize,3,266 masked
89643498,testBlock,centre_mouse,12,297,reveal,im0000245.jpg,N_1.png,1,N_2.png,2,N_3.png,3,N_4.png,4,Y_1.png,1,Y_2.png,2,Y_3.png,3,Y_4.png,4,response_G.png,3,response_S.png,4,Word 5 of 6,1,Image 2 of 40,1,very_global.png,7,very_specific.png,6,less_global.png,9,less_specific.png,8,0,0,266 masked
89643498,testBlock,present_trial,13,699,no_4,im0000245.jpg,N_1.png,1,N_2.png,2,N_3.png,3,N_4.png,4,Y_1.png,1,Y_2.png,2,Y_3.png,3,Y_4.png,4,response_G.png,3,response_S.png,4,Word 6 of 6,1,Image 2 of 40,1,very_global.png,7,very_specific.png,6,less_global.png,9,less_specific.png,8,bar,4,266 masked
89643498,testBlock,centre_mouse,14,590,reveal,im0000245.jpg,N_1.png,1,N_2.png,2,N_3.png,3,N_4.png,4,Y_1.png,1,Y_2.png,2,Y_3.png,3,Y_4.png,4,response_G.png,3,response_S.png,4,Word 6 of 6,1,Image 2 of 40,1,very_global.png,7,very_specific.png,6,less_global.png,9,less_specific.png,8,0,0,266 masked
89643498,testBlock,test,1,0,0,im0000245.jpg,+,1,im0000221.jpg,17,mask4.jpg,4,mask5.jpg,5,mask5.jpg,5,mask4.jpg,4,mask3.jpg,3,0,0,0,0,0,0,0,0,0,0,0,0,0,0,0,0,0,0,0,0,266 masked
89643498,testBlock,centre_mouse,2,685,reveal,im0000245.jpg,N_1.png,1,N_2.png,2,N_3.png,3,N_4.png,4,Y_1.png,1,Y_2.png,2,Y_3.png,3,Y_4.png,4,response_G.png,3,response_S.png,4,Word 0 of 6,1,Image 3 of 40,1,very_global.png,7,very_specific.png,6,less_global.png,9,less_specific.png,8,0,0,266 masked
89643498,testBlock,present_trial,3,5832,no_1,im0000221.jpg,N_1.png,1,N_2.png,2,N_3.png,3,N_4.png,4,Y_1.png,1,Y_2.png,2,Y_3.png,3,Y_4.png,4,response_G.png,3,response_S.png,4,Word 1 of 6,1,Image 3 of 40,1,very_global.png,7,very_specific.png,6,less_global.png,9,less_specific.png,8,car,2,266 masked
89643498,testBlock,centre_mouse,4,400,reveal,im0000221.jpg,N_1.png,1,N_2.png,2,N_3.png,3,N_4.png,4,Y_1.png,1,Y_2.png,2,Y_3.png,3,Y_4.png,4,response_G.png,3,response_S.png,4,Word 1 of 6,1,Image 3 of 40,1,very_global.png,7,very_specific.png,6,less_global.png,9,less_specific.png,8,0,0,266 masked
89643498,testBlock,present_trial,5,1048,yes_2,im0000221.jpg,N_1.png,1,N_2.png,2,N_3.png,3,N_4.png,4,Y_1.png,1,Y_2.png,2,Y_3.png,3,Y_4.png,4,response_G.png,3,response_S.png,4,Word 2 of 6,1,Image 3 of 40,1,very_global.png,7,very_specific.png,6,less_global.png,9,less_specific.png,8,road,5,266 masked
89643498,testBlock,centre_mouse,6,407,reveal,im0000221.jpg,N_1.png,1,N_2.png,2,N_3.png,3,N_4.png,4,Y_1.png,1,Y_2.png,2,Y_3.png,3,Y_4.png,4,response_G.png,3,response_S.png,4,Word 2 of 6,1,Image 3 of 40,1,very_global.png,7,very_specific.png,6,less_global.png,9,less_specific.png,8,0,0,266 masked
89643498,testBlock,present_trial,7,798,yes_2,im0000221.jpg,N_1.png,1,N_2.png,2,N_3.png,3,N_4.png,4,Y_1.png,1,Y_2.png,2,Y_3.png,3,Y_4.png,4,response_G.png,3,response_S.png,4,Word 3 of 6,1,Image 3 of 40,1,very_global.png,7,very_specific.png,6,less_global.png,9,less_specific.png,8,street,4,266 masked
89643498,testBlock,centre_mouse,8,393,reveal,im0000221.jpg,N_1.png,1,N_2.png,2,N_3.png,3,N_4.png,4,Y_1.png,1,Y_2.png,2,Y_3.png,3,Y_4.png,4,response_G.png,3,response_S.png,4,Word 3 of 6,1,Image 3 of 40,1,very_global.png,7,very_specific.png,6,less_global.png,9,less_specific.png,8,0,0,266 masked
89643498,testBlock,present_trial,9,32841,yes_2,im0000221.jpg,N_1.png,1,N_2.png,2,N_3.png,3,N_4.png,4,Y_1.png,1,Y_2.png,2,Y_3.png,3,Y_4.png,4,response_G.png,3,response_S.png,4,Word 4 of 6,1,Image 3 of 40,1,very_global.png,7,very_specific.png,6,less_global.png,9,less_specific.png,8,sidewalk,6,266 masked
89643498,testBlock,centre_mouse,10,391,reveal,im0000221.jpg,N_1.png,1,N_2.png,2,N_3.png,3,N_4.png,4,Y_1.png,1,Y_2.png,2,Y_3.png,3,Y_4.png,4,response_G.png,3,response_S.png,4,Word 4 of 6,1,Image 3 of 40,1,very_global.png,7,very_specific.png,6,less_global.png,9,less_specific.png,8,0,0,266 masked
89643498,testBlock,present_trial,11,947,yes_2,im0000221.jpg,N_1.png,1,N_2.png,2,N_3.png,3,N_4.png,4,Y_1.png,1,Y_2.png,2,Y_3.png,3,Y_4.png,4,response_G.png,3,response_S.png,4,Word 5 of 6,1,Image 3 of 40,1,very_global.png,7,very_specific.png,6,less_global.png,9,less_specific.png,8,corner,1,266 masked
89643498,testBlock,centre_mouse,12,531,reveal,im0000221.jpg,N_1.png,1,N_2.png,2,N_3.png,3,N_4.png,4,Y_1.png,1,Y_2.png,2,Y_3.png,3,Y_4.png,4,response_G.png,3,response_S.png,4,Word 5 of 6,1,Image 3 of 40,1,very_global.png,7,very_specific.png,6,less_global.png,9,less_specific.png,8,0,0,266 masked
89643498,testBlock,present_trial,13,6576,no_2,im0000221.jpg,N_1.png,1,N_2.png,2,N_3.png,3,N_4.png,4,Y_1.png,1,Y_2.png,2,Y_3.png,3,Y_4.png,4,response_G.png,3,response_S.png,4,Word 6 of 6,1,Image 3 of 40,1,very_global.png,7,very_specific.png,6,less_global.png,9,less_specific.png,8,busy,3,266 masked
89643498,testBlock,centre_mouse,14,431,reveal,im0000221.jpg,N_1.png,1,N_2.png,2,N_3.png,3,N_4.png,4,Y_1.png,1,Y_2.png,2,Y_3.png,3,Y_4.png,4,response_G.png,3,response_S.png,4,Word 6 of 6,1,Image 3 of 40,1,very_global.png,7,very_specific.png,6,less_global.png,9,less_specific.png,8,0,0,266 masked
89643498,testBlock,test,1,0,0,im0000221.jpg,+,1,im0000151.jpg,13,mask5.jpg,5,mask3.jpg,3,mask1.jpg,1,mask1.jpg,1,mask4.jpg,4,0,0,0,0,0,0,0,0,0,0,0,0,0,0,0,0,0,0,0,0,266 masked
89643498,testBlock,centre_mouse,2,2573,reveal,im0000221.jpg,N_1.png,1,N_2.png,2,N_3.png,3,N_4.png,4,Y_1.png,1,Y_2.png,2,Y_3.png,3,Y_4.png,4,response_G.png,3,response_S.png,4,Word 0 of 6,1,Image 4 of 40,1,very_global.png,7,very_specific.png,6,less_global.png,9,less_specific.png,8,0,0,266 masked
89643498,testBlock,present_trial,3,1678,no_2,im0000151.jpg,N_1.png,1,N_2.png,2,N_3.png,3,N_4.png,4,Y_1.png,1,Y_2.png,2,Y_3.png,3,Y_4.png,4,response_G.png,3,response_S.png,4,Word 1 of 6,1,Image 4 of 40,1,very_global.png,7,very_specific.png,6,less_global.png,9,less_specific.png,8,kneel,5,266 masked
89643498,testBlock,centre_mouse,4,394,reveal,im0000151.jpg,N_1.png,1,N_2.png,2,N_3.png,3,N_4.png,4,Y_1.png,1,Y_2.png,2,Y_3.png,3,Y_4.png,4,response_G.png,3,response_S.png,4,Word 1 of 6,1,Image 4 of 40,1,very_global.png,7,very_specific.png,6,less_global.png,9,less_specific.png,8,0,0,266 masked
89643498,testBlock,present_trial,5,24390,yes_3,im0000151.jpg,N_1.png,1,N_2.png,2,N_3.png,3,N_4.png,4,Y_1.png,1,Y_2.png,2,Y_3.png,3,Y_4.png,4,response_G.png,3,response_S.png,4,Word 2 of 6,1,Image 4 of 40,1,very_global.png,7,very_specific.png,6,less_global.png,9,less_specific.png,8,religion,4,266 masked
89643498,testBlock,centre_mouse,6,391,reveal,im0000151.jpg,N_1.png,1,N_2.png,2,N_3.png,3,N_4.png,4,Y_1.png,1,Y_2.png,2,Y_3.png,3,Y_4.png,4,response_G.png,3,response_S.png,4,Word 2 of 6,1,Image 4 of 40,1,very_global.png,7,very_specific.png,6,less_global.png,9,less_specific.png,8,0,0,266 masked
89643498,testBlock,present_trial,7,1477,yes_2,im0000151.jpg,N_1.png,1,N_2.png,2,N_3.png,3,N_4.png,4,Y_1.png,1,Y_2.png,2,Y_3.png,3,Y_4.png,4,response_G.png,3,response_S.png,4,Word 3 of 6,1,Image 4 of 40,1,very_global.png,7,very_specific.png,6,less_global.png,9,less_specific.png,8,man,3,266 masked
89643498,testBlock,centre_mouse,8,350,reveal,im0000151.jpg,N_1.png,1,N_2.png,2,N_3.png,3,N_4.png,4,Y_1.png,1,Y_2.png,2,Y_3.png,3,Y_4.png,4,response_G.png,3,response_S.png,4,Word 3 of 6,1,Image 4 of 40,1,very_global.png,7,very_specific.png,6,less_global.png,9,less_specific.png,8,0,0,266 masked
89643498,testBlock,present_trial,9,668,yes_2,im0000151.jpg,N_1.png,1,N_2.png,2,N_3.png,3,N_4.png,4,Y_1.png,1,Y_2.png,2,Y_3.png,3,Y_4.png,4,response_G.png,3,response_S.png,4,Word 4 of 6,1,Image 4 of 40,1,very_global.png,7,very_specific.png,6,less_global.png,9,less_specific.png,8,pray,2,266 masked
89643498,testBlock,centre_mouse,10,460,reveal,im0000151.jpg,N_1.png,1,N_2.png,2,N_3.png,3,N_4.png,4,Y_1.png,1,Y_2.png,2,Y_3.png,3,Y_4.png,4,response_G.png,3,response_S.png,4,Word 4 of 6,1,Image 4 of 40,1,very_global.png,7,very_specific.png,6,less_global.png,9,less_specific.png,8,0,0,266 masked
89643498,testBlock,present_trial,11,1612,yes_3,im0000151.jpg,N_1.png,1,N_2.png,2,N_3.png,3,N_4.png,4,Y_1.png,1,Y_2.png,2,Y_3.png,3,Y_4.png,4,response_G.png,3,response_S.png,4,Word 5 of 6,1,Image 4 of 40,1,very_global.png,7,very_specific.png,6,less_global.png,9,less_specific.png,8,muslim,1,266 masked
89643498,testBlock,centre_mouse,12,407,reveal,im0000151.jpg,N_1.png,1,N_2.png,2,N_3.png,3,N_4.png,4,Y_1.png,1,Y_2.png,2,Y_3.png,3,Y_4.png,4,response_G.png,3,response_S.png,4,Word 5 of 6,1,Image 4 of 40,1,very_global.png,7,very_specific.png,6,less_global.png,9,less_specific.png,8,0,0,266 masked
89643498,testBlock,present_trial,13,914,yes_4,im0000151.jpg,N_1.png,1,N_2.png,2,N_3.png,3,N_4.png,4,Y_1.png,1,Y_2.png,2,Y_3.png,3,Y_4.png,4,response_G.png,3,response_S.png,4,Word 6 of 6,1,Image 4 of 40,1,very_global.png,7,very_specific.png,6,less_global.png,9,less_specific.png,8,worship,6,266 masked
89643498,testBlock,centre_mouse,14,641,reveal,im0000151.jpg,N_1.png,1,N_2.png,2,N_3.png,3,N_4.png,4,Y_1.png,1,Y_2.png,2,Y_3.png,3,Y_4.png,4,response_G.png,3,response_S.png,4,Word 6 of 6,1,Image 4 of 40,1,very_global.png,7,very_specific.png,6,less_global.png,9,less_specific.png,8,0,0,266 masked
89643498,testBlock,test,1,0,0,im0000151.jpg,+,1,im0000393.jpg,39,mask1.jpg,1,mask2.jpg,2,mask2.jpg,2,mask2.jpg,2,mask5.jpg,5,0,0,0,0,0,0,0,0,0,0,0,0,0,0,0,0,0,0,0,0,266 masked
89643498,testBlock,centre_mouse,2,509,reveal,im0000151.jpg,N_1.png,1,N_2.png,2,N_3.png,3,N_4.png,4,Y_1.png,1,Y_2.png,2,Y_3.png,3,Y_4.png,4,response_G.png,3,response_S.png,4,Word 0 of 6,1,Image 5 of 40,1,very_global.png,7,very_specific.png,6,less_global.png,9,less_specific.png,8,0,0,266 masked
89643498,testBlock,present_trial,3,1442,yes_4,im0000393.jpg,N_1.png,1,N_2.png,2,N_3.png,3,N_4.png,4,Y_1.png,1,Y_2.png,2,Y_3.png,3,Y_4.png,4,response_G.png,3,response_S.png,4,Word 1 of 6,1,Image 5 of 40,1,very_global.png,7,very_specific.png,6,less_global.png,9,less_specific.png,8,mountain,3,266 masked
89643498,testBlock,centre_mouse,4,351,reveal,im0000393.jpg,N_1.png,1,N_2.png,2,N_3.png,3,N_4.png,4,Y_1.png,1,Y_2.png,2,Y_3.png,3,Y_4.png,4,response_G.png,3,response_S.png,4,Word 1 of 6,1,Image 5 of 40,1,very_global.png,7,very_specific.png,6,less_global.png,9,less_specific.png,8,0,0,266 masked
89643498,testBlock,present_trial,5,1083,yes_2,im0000393.jpg,N_1.png,1,N_2.png,2,N_3.png,3,N_4.png,4,Y_1.png,1,Y_2.png,2,Y_3.png,3,Y_4.png,4,response_G.png,3,response_S.png,4,Word 2 of 6,1,Image 5 of 40,1,very_global.png,7,very_specific.png,6,less_global.png,9,less_specific.png,8,open-road,5,266 masked
89643498,testBlock,centre_mouse,6,426,reveal,im0000393.jpg,N_1.png,1,N_2.png,2,N_3.png,3,N_4.png,4,Y_1.png,1,Y_2.png,2,Y_3.png,3,Y_4.png,4,response_G.png,3,response_S.png,4,Word 2 of 6,1,Image 5 of 40,1,very_global.png,7,very_specific.png,6,less_global.png,9,less_specific.png,8,0,0,266 masked
89643498,testBlock,present_trial,7,1153,yes_2,im0000393.jpg,N_1.png,1,N_2.png,2,N_3.png,3,N_4.png,4,Y_1.png,1,Y_2.png,2,Y_3.png,3,Y_4.png,4,response_G.png,3,response_S.png,4,Word 3 of 6,1,Image 5 of 40,1,very_global.png,7,very_specific.png,6,less_global.png,9,less_specific.png,8,car,1,266 masked
89643498,testBlock,centre_mouse,8,587,reveal,im0000393.jpg,N_1.png,1,N_2.png,2,N_3.png,3,N_4.png,4,Y_1.png,1,Y_2.png,2,Y_3.png,3,Y_4.png,4,response_G.png,3,response_S.png,4,Word 3 of 6,1,Image 5 of 40,1,very_global.png,7,very_specific.png,6,less_global.png,9,less_specific.png,8,0,0,266 masked
89643498,testBlock,present_trial,9,2107,yes_2,im0000393.jpg,N_1.png,1,N_2.png,2,N_3.png,3,N_4.png,4,Y_1.png,1,Y_2.png,2,Y_3.png,3,Y_4.png,4,response_G.png,3,response_S.png,4,Word 4 of 6,1,Image 5 of 40,1,very_global.png,7,very_specific.png,6,less_global.png,9,less_specific.png,8,drive,6,266 masked
89643498,testBlock,centre_mouse,10,414,reveal,im0000393.jpg,N_1.png,1,N_2.png,2,N_3.png,3,N_4.png,4,Y_1.png,1,Y_2.png,2,Y_3.png,3,Y_4.png,4,response_G.png,3,response_S.png,4,Word 4 of 6,1,Image 5 of 40,1,very_global.png,7,very_specific.png,6,less_global.png,9,less_specific.png,8,0,0,266 masked
89643498,testBlock,present_trial,11,914,yes_2,im0000393.jpg,N_1.png,1,N_2.png,2,N_3.png,3,N_4.png,4,Y_1.png,1,Y_2.png,2,Y_3.png,3,Y_4.png,4,response_G.png,3,response_S.png,4,Word 5 of 6,1,Image 5 of 40,1,very_global.png,7,very_specific.png,6,less_global.png,9,less_specific.png,8,road,2,266 masked
89643498,testBlock,centre_mouse,12,440,reveal,im0000393.jpg,N_1.png,1,N_2.png,2,N_3.png,3,N_4.png,4,Y_1.png,1,Y_2.png,2,Y_3.png,3,Y_4.png,4,response_G.png,3,response_S.png,4,Word 5 of 6,1,Image 5 of 40,1,very_global.png,7,very_specific.png,6,less_global.png,9,less_specific.png,8,0,0,266 masked
89643498,testBlock,present_trial,13,913,yes_4,im0000393.jpg,N_1.png,1,N_2.png,2,N_3.png,3,N_4.png,4,Y_1.png,1,Y_2.png,2,Y_3.png,3,Y_4.png,4,response_G.png,3,response_S.png,4,Word 6 of 6,1,Image 5 of 40,1,very_global.png,7,very_specific.png,6,less_global.png,9,less_specific.png,8,sky,4,266 masked
89643498,testBlock,centre_mouse,14,406,reveal,im0000393.jpg,N_1.png,1,N_2.png,2,N_3.png,3,N_4.png,4,Y_1.png,1,Y_2.png,2,Y_3.png,3,Y_4.png,4,response_G.png,3,response_S.png,4,Word 6 of 6,1,Image 5 of 40,1,very_global.png,7,very_specific.png,6,less_global.png,9,less_specific.png,8,0,0,266 masked
89643498,testBlock,test,1,0,0,im0000393.jpg,+,1,im0000282.jpg,26,mask2.jpg,2,mask1.jpg,1,mask3.jpg,3,mask3.jpg,3,mask2.jpg,2,0,0,0,0,0,0,0,0,0,0,0,0,0,0,0,0,0,0,0,0,266 masked
89643498,testBlock,centre_mouse,2,10264,reveal,im0000393.jpg,N_1.png,1,N_2.png,2,N_3.png,3,N_4.png,4,Y_1.png,1,Y_2.png,2,Y_3.png,3,Y_4.png,4,response_G.png,3,response_S.png,4,Word 0 of 6,1,Image 6 of 40,1,very_global.png,7,very_specific.png,6,less_global.png,9,less_specific.png,8,0,0,266 masked
89643498,testBlock,present_trial,3,2636,yes_1,im0000282.jpg,N_1.png,1,N_2.png,2,N_3.png,3,N_4.png,4,Y_1.png,1,Y_2.png,2,Y_3.png,3,Y_4.png,4,response_G.png,3,response_S.png,4,Word 1 of 6,1,Image 6 of 40,1,very_global.png,7,very_specific.png,6,less_global.png,9,less_specific.png,8,rabbit,4,266 masked
89643498,testBlock,centre_mouse,4,435,reveal,im0000282.jpg,N_1.png,1,N_2.png,2,N_3.png,3,N_4.png,4,Y_1.png,1,Y_2.png,2,Y_3.png,3,Y_4.png,4,response_G.png,3,response_S.png,4,Word 1 of 6,1,Image 6 of 40,1,very_global.png,7,very_specific.png,6,less_global.png,9,less_specific.png,8,0,0,266 masked
89643498,testBlock,present_trial,5,1249,yes_2,im0000282.jpg,N_1.png,1,N_2.png,2,N_3.png,3,N_4.png,4,Y_1.png,1,Y_2.png,2,Y_3.png,3,Y_4.png,4,response_G.png,3,response_S.png,4,Word 2 of 6,1,Image 6 of 40,1,very_global.png,7,very_specific.png,6,less_global.png,9,less_specific.png,8,dirt,6,266 masked
89643498,testBlock,centre_mouse,6,401,reveal,im0000282.jpg,N_1.png,1,N_2.png,2,N_3.png,3,N_4.png,4,Y_1.png,1,Y_2.png,2,Y_3.png,3,Y_4.png,4,response_G.png,3,response_S.png,4,Word 2 of 6,1,Image 6 of 40,1,very_global.png,7,very_specific.png,6,less_global.png,9,less_specific.png,8,0,0,266 masked
89643498,testBlock,present_trial,7,654,yes_3,im0000282.jpg,N_1.png,1,N_2.png,2,N_3.png,3,N_4.png,4,Y_1.png,1,Y_2.png,2,Y_3.png,3,Y_4.png,4,response_G.png,3,response_S.png,4,Word 3 of 6,1,Image 6 of 40,1,very_global.png,7,very_specific.png,6,less_global.png,9,less_specific.png,8,grass,2,266 masked
89643498,testBlock,centre_mouse,8,524,reveal,im0000282.jpg,N_1.png,1,N_2.png,2,N_3.png,3,N_4.png,4,Y_1.png,1,Y_2.png,2,Y_3.png,3,Y_4.png,4,response_G.png,3,response_S.png,4,Word 3 of 6,1,Image 6 of 40,1,very_global.png,7,very_specific.png,6,less_global.png,9,less_specific.png,8,0,0,266 masked
89643498,testBlock,present_trial,9,1342,yes_2,im0000282.jpg,N_1.png,1,N_2.png,2,N_3.png,3,N_4.png,4,Y_1.png,1,Y_2.png,2,Y_3.png,3,Y_4.png,4,response_G.png,3,response_S.png,4,Word 4 of 6,1,Image 6 of 40,1,very_global.png,7,very_specific.png,6,less_global.png,9,less_specific.png,8,sit,3,266 masked
89643498,testBlock,centre_mouse,10,384,reveal,im0000282.jpg,N_1.png,1,N_2.png,2,N_3.png,3,N_4.png,4,Y_1.png,1,Y_2.png,2,Y_3.png,3,Y_4.png,4,response_G.png,3,response_S.png,4,Word 4 of 6,1,Image 6 of 40,1,very_global.png,7,very_specific.png,6,less_global.png,9,less_specific.png,8,0,0,266 masked
89643498,testBlock,present_trial,11,5197,yes_3,im0000282.jpg,N_1.png,1,N_2.png,2,N_3.png,3,N_4.png,4,Y_1.png,1,Y_2.png,2,Y_3.png,3,Y_4.png,4,response_G.png,3,response_S.png,4,Word 5 of 6,1,Image 6 of 40,1,very_global.png,7,very_specific.png,6,less_global.png,9,less_specific.png,8,animal,5,266 masked
89643498,testBlock,centre_mouse,12,356,reveal,im0000282.jpg,N_1.png,1,N_2.png,2,N_3.png,3,N_4.png,4,Y_1.png,1,Y_2.png,2,Y_3.png,3,Y_4.png,4,response_G.png,3,response_S.png,4,Word 5 of 6,1,Image 6 of 40,1,very_global.png,7,very_specific.png,6,less_global.png,9,less_specific.png,8,0,0,266 masked
89643498,testBlock,present_trial,13,972,yes_2,im0000282.jpg,N_1.png,1,N_2.png,2,N_3.png,3,N_4.png,4,Y_1.png,1,Y_2.png,2,Y_3.png,3,Y_4.png,4,response_G.png,3,response_S.png,4,Word 6 of 6,1,Image 6 of 40,1,very_global.png,7,very_specific.png,6,less_global.png,9,less_specific.png,8,sheep,1,266 masked
89643498,testBlock,centre_mouse,14,322,reveal,im0000282.jpg,N_1.png,1,N_2.png,2,N_3.png,3,N_4.png,4,Y_1.png,1,Y_2.png,2,Y_3.png,3,Y_4.png,4,response_G.png,3,response_S.png,4,Word 6 of 6,1,Image 6 of 40,1,very_global.png,7,very_specific.png,6,less_global.png,9,less_specific.png,8,0,0,266 masked
89643498,testBlock,test,1,0,0,im0000282.jpg,+,1,im0000104.jpg,9,mask3.jpg,3,mask4.jpg,4,mask4.jpg,4,mask5.jpg,5,mask1.jpg,1,0,0,0,0,0,0,0,0,0,0,0,0,0,0,0,0,0,0,0,0,266 masked
89643498,testBlock,centre_mouse,2,597,reveal,im0000282.jpg,N_1.png,1,N_2.png,2,N_3.png,3,N_4.png,4,Y_1.png,1,Y_2.png,2,Y_3.png,3,Y_4.png,4,response_G.png,3,response_S.png,4,Word 0 of 6,1,Image 7 of 40,1,very_global.png,7,very_specific.png,6,less_global.png,9,less_specific.png,8,0,0,266 masked
89643498,testBlock,present_trial,3,2039,yes_3,im0000104.jpg,N_1.png,1,N_2.png,2,N_3.png,3,N_4.png,4,Y_1.png,1,Y_2.png,2,Y_3.png,3,Y_4.png,4,response_G.png,3,response_S.png,4,Word 1 of 6,1,Image 7 of 40,1,very_global.png,7,very_specific.png,6,less_global.png,9,less_specific.png,8,sky,5,266 masked
89643498,testBlock,centre_mouse,4,407,reveal,im0000104.jpg,N_1.png,1,N_2.png,2,N_3.png,3,N_4.png,4,Y_1.png,1,Y_2.png,2,Y_3.png,3,Y_4.png,4,response_G.png,3,response_S.png,4,Word 1 of 6,1,Image 7 of 40,1,very_global.png,7,very_specific.png,6,less_global.png,9,less_specific.png,8,0,0,266 masked
89643498,testBlock,present_trial,5,1662,no_2,im0000104.jpg,N_1.png,1,N_2.png,2,N_3.png,3,N_4.png,4,Y_1.png,1,Y_2.png,2,Y_3.png,3,Y_4.png,4,response_G.png,3,response_S.png,4,Word 2 of 6,1,Image 7 of 40,1,very_global.png,7,very_specific.png,6,less_global.png,9,less_specific.png,8,animal,2,266 masked
89643498,testBlock,centre_mouse,6,369,reveal,im0000104.jpg,N_1.png,1,N_2.png,2,N_3.png,3,N_4.png,4,Y_1.png,1,Y_2.png,2,Y_3.png,3,Y_4.png,4,response_G.png,3,response_S.png,4,Word 2 of 6,1,Image 7 of 40,1,very_global.png,7,very_specific.png,6,less_global.png,9,less_specific.png,8,0,0,266 masked
89643498,testBlock,present_trial,7,11709,yes_3,im0000104.jpg,N_1.png,1,N_2.png,2,N_3.png,3,N_4.png,4,Y_1.png,1,Y_2.png,2,Y_3.png,3,Y_4.png,4,response_G.png,3,response_S.png,4,Word 3 of 6,1,Image 7 of 40,1,very_global.png,7,very_specific.png,6,less_global.png,9,less_specific.png,8,forest,4,266 masked
89643498,testBlock,centre_mouse,8,353,reveal,im0000104.jpg,N_1.png,1,N_2.png,2,N_3.png,3,N_4.png,4,Y_1.png,1,Y_2.png,2,Y_3.png,3,Y_4.png,4,response_G.png,3,response_S.png,4,Word 3 of 6,1,Image 7 of 40,1,very_global.png,7,very_specific.png,6,less_global.png,9,less_specific.png,8,0,0,266 masked
89643498,testBlock,present_trial,9,550,yes_3,im0000104.jpg,N_1.png,1,N_2.png,2,N_3.png,3,N_4.png,4,Y_1.png,1,Y_2.png,2,Y_3.png,3,Y_4.png,4,response_G.png,3,response_S.png,4,Word 4 of 6,1,Image 7 of 40,1,very_global.png,7,very_specific.png,6,less_global.png,9,less_specific.png,8,tree,6,266 masked
89643498,testBlock,centre_mouse,10,259,reveal,im0000104.jpg,N_1.png,1,N_2.png,2,N_3.png,3,N_4.png,4,Y_1.png,1,Y_2.png,2,Y_3.png,3,Y_4.png,4,response_G.png,3,response_S.png,4,Word 4 of 6,1,Image 7 of 40,1,very_global.png,7,very_specific.png,6,less_global.png,9,less_specific.png,8,0,0,266 masked
89643498,testBlock,present_trial,11,1717,no_1,im0000104.jpg,N_1.png,1,N_2.png,2,N_3.png,3,N_4.png,4,Y_1.png,1,Y_2.png,2,Y_3.png,3,Y_4.png,4,response_G.png,3,response_S.png,4,Word 5 of 6,1,Image 7 of 40,1,very_global.png,7,very_specific.png,6,less_global.png,9,less_specific.png,8,goat,1,266 masked
89643498,testBlock,centre_mouse,12,394,reveal,im0000104.jpg,N_1.png,1,N_2.png,2,N_3.png,3,N_4.png,4,Y_1.png,1,Y_2.png,2,Y_3.png,3,Y_4.png,4,response_G.png,3,response_S.png,4,Word 5 of 6,1,Image 7 of 40,1,very_global.png,7,very_specific.png,6,less_global.png,9,less_specific.png,8,0,0,266 masked
89643498,testBlock,present_trial,13,1669,no_1,im0000104.jpg,N_1.png,1,N_2.png,2,N_3.png,3,N_4.png,4,Y_1.png,1,Y_2.png,2,Y_3.png,3,Y_4.png,4,response_G.png,3,response_S.png,4,Word 6 of 6,1,Image 7 of 40,1,very_global.png,7,very_specific.png,6,less_global.png,9,less_specific.png,8,farm,3,266 masked
89643498,testBlock,centre_mouse,14,369,reveal,im0000104.jpg,N_1.png,1,N_2.png,2,N_3.png,3,N_4.png,4,Y_1.png,1,Y_2.png,2,Y_3.png,3,Y_4.png,4,response_G.png,3,response_S.png,4,Word 6 of 6,1,Image 7 of 40,1,very_global.png,7,very_specific.png,6,less_global.png,9,less_specific.png,8,0,0,266 masked
89643498,testBlock,test,1,0,0,im0000104.jpg,+,1,im0000084.jpg,6,mask4.jpg,4,mask5.jpg,5,mask5.jpg,5,mask4.jpg,4,mask5.jpg,5,0,0,0,0,0,0,0,0,0,0,0,0,0,0,0,0,0,0,0,0,266 masked
89643498,testBlock,centre_mouse,2,868,reveal,im0000104.jpg,N_1.png,1,N_2.png,2,N_3.png,3,N_4.png,4,Y_1.png,1,Y_2.png,2,Y_3.png,3,Y_4.png,4,response_G.png,3,response_S.png,4,Word 0 of 6,1,Image 8 of 40,1,very_global.png,7,very_specific.png,6,less_global.png,9,less_specific.png,8,0,0,266 masked
89643498,testBlock,present_trial,3,2109,yes_2,im0000084.jpg,N_1.png,1,N_2.png,2,N_3.png,3,N_4.png,4,Y_1.png,1,Y_2.png,2,Y_3.png,3,Y_4.png,4,response_G.png,3,response_S.png,4,Word 1 of 6,1,Image 8 of 40,1,very_global.png,7,very_specific.png,6,less_global.png,9,less_specific.png,8,light,2,266 masked
89643498,testBlock,centre_mouse,4,730,reveal,im0000084.jpg,N_1.png,1,N_2.png,2,N_3.png,3,N_4.png,4,Y_1.png,1,Y_2.png,2,Y_3.png,3,Y_4.png,4,response_G.png,3,response_S.png,4,Word 1 of 6,1,Image 8 of 40,1,very_global.png,7,very_specific.png,6,less_global.png,9,less_specific.png,8,0,0,266 masked
89643498,testBlock,present_trial,5,1541,yes_2,im0000084.jpg,N_1.png,1,N_2.png,2,N_3.png,3,N_4.png,4,Y_1.png,1,Y_2.png,2,Y_3.png,3,Y_4.png,4,response_G.png,3,response_S.png,4,Word 2 of 6,1,Image 8 of 40,1,very_global.png,7,very_specific.png,6,less_global.png,9,less_specific.png,8,beach,5,266 masked
89643498,testBlock,centre_mouse,6,786,reveal,im0000084.jpg,N_1.png,1,N_2.png,2,N_3.png,3,N_4.png,4,Y_1.png,1,Y_2.png,2,Y_3.png,3,Y_4.png,4,response_G.png,3,response_S.png,4,Word 2 of 6,1,Image 8 of 40,1,very_global.png,7,very_specific.png,6,less_global.png,9,less_specific.png,8,0,0,266 masked
89643498,testBlock,present_trial,7,5169,yes_2,im0000084.jpg,N_1.png,1,N_2.png,2,N_3.png,3,N_4.png,4,Y_1.png,1,Y_2.png,2,Y_3.png,3,Y_4.png,4,response_G.png,3,response_S.png,4,Word 3 of 6,1,Image 8 of 40,1,very_global.png,7,very_specific.png,6,less_global.png,9,less_specific.png,8,ocean,6,266 masked
89643498,testBlock,centre_mouse,8,768,reveal,im0000084.jpg,N_1.png,1,N_2.png,2,N_3.png,3,N_4.png,4,Y_1.png,1,Y_2.png,2,Y_3.png,3,Y_4.png,4,response_G.png,3,response_S.png,4,Word 3 of 6,1,Image 8 of 40,1,very_global.png,7,very_specific.png,6,less_global.png,9,less_specific.png,8,0,0,266 masked
89643498,testBlock,present_trial,9,789,yes_3,im0000084.jpg,N_1.png,1,N_2.png,2,N_3.png,3,N_4.png,4,Y_1.png,1,Y_2.png,2,Y_3.png,3,Y_4.png,4,response_G.png,3,response_S.png,4,Word 4 of 6,1,Image 8 of 40,1,very_global.png,7,very_specific.png,6,less_global.png,9,less_specific.png,8,water,1,266 masked
89643498,testBlock,centre_mouse,10,256,reveal,im0000084.jpg,N_1.png,1,N_2.png,2,N_3.png,3,N_4.png,4,Y_1.png,1,Y_2.png,2,Y_3.png,3,Y_4.png,4,response_G.png,3,response_S.png,4,Word 4 of 6,1,Image 8 of 40,1,very_global.png,7,very_specific.png,6,less_global.png,9,less_specific.png,8,0,0,266 masked
89643498,testBlock,present_trial,11,571,yes_3,im0000084.jpg,N_1.png,1,N_2.png,2,N_3.png,3,N_4.png,4,Y_1.png,1,Y_2.png,2,Y_3.png,3,Y_4.png,4,response_G.png,3,response_S.png,4,Word 5 of 6,1,Image 8 of 40,1,very_global.png,7,very_specific.png,6,less_global.png,9,less_specific.png,8,blue,4,266 masked
89643498,testBlock,centre_mouse,12,389,reveal,im0000084.jpg,N_1.png,1,N_2.png,2,N_3.png,3,N_4.png,4,Y_1.png,1,Y_2.png,2,Y_3.png,3,Y_4.png,4,response_G.png,3,response_S.png,4,Word 5 of 6,1,Image 8 of 40,1,very_global.png,7,very_specific.png,6,less_global.png,9,less_specific.png,8,0,0,266 masked
89643498,testBlock,present_trial,13,2549,yes_3,im0000084.jpg,N_1.png,1,N_2.png,2,N_3.png,3,N_4.png,4,Y_1.png,1,Y_2.png,2,Y_3.png,3,Y_4.png,4,response_G.png,3,response_S.png,4,Word 6 of 6,1,Image 8 of 40,1,very_global.png,7,very_specific.png,6,less_global.png,9,less_specific.png,8,calm,3,266 masked
89643498,testBlock,centre_mouse,14,418,reveal,im0000084.jpg,N_1.png,1,N_2.png,2,N_3.png,3,N_4.png,4,Y_1.png,1,Y_2.png,2,Y_3.png,3,Y_4.png,4,response_G.png,3,response_S.png,4,Word 6 of 6,1,Image 8 of 40,1,very_global.png,7,very_specific.png,6,less_global.png,9,less_specific.png,8,0,0,266 masked
89643498,testBlock,test,1,0,0,im0000084.jpg,+,1,im0000109.jpg,10,mask2.jpg,2,mask3.jpg,3,mask3.jpg,3,mask2.jpg,2,mask4.jpg,4,0,0,0,0,0,0,0,0,0,0,0,0,0,0,0,0,0,0,0,0,266 masked
89643498,testBlock,centre_mouse,2,1117,reveal,im0000084.jpg,N_1.png,1,N_2.png,2,N_3.png,3,N_4.png,4,Y_1.png,1,Y_2.png,2,Y_3.png,3,Y_4.png,4,response_G.png,3,response_S.png,4,Word 0 of 6,1,Image 9 of 40,1,very_global.png,7,very_specific.png,6,less_global.png,9,less_specific.png,8,0,0,266 masked
89643498,testBlock,present_trial,3,1504,no_2,im0000109.jpg,N_1.png,1,N_2.png,2,N_3.png,3,N_4.png,4,Y_1.png,1,Y_2.png,2,Y_3.png,3,Y_4.png,4,response_G.png,3,response_S.png,4,Word 1 of 6,1,Image 9 of 40,1,very_global.png,7,very_specific.png,6,less_global.png,9,less_specific.png,8,vest,3,266 masked
89643498,testBlock,centre_mouse,4,305,reveal,im0000109.jpg,N_1.png,1,N_2.png,2,N_3.png,3,N_4.png,4,Y_1.png,1,Y_2.png,2,Y_3.png,3,Y_4.png,4,response_G.png,3,response_S.png,4,Word 1 of 6,1,Image 9 of 40,1,very_global.png,7,very_specific.png,6,less_global.png,9,less_specific.png,8,0,0,266 masked
89643498,testBlock,present_trial,5,15500,no_3,im0000109.jpg,N_1.png,1,N_2.png,2,N_3.png,3,N_4.png,4,Y_1.png,1,Y_2.png,2,Y_3.png,3,Y_4.png,4,response_G.png,3,response_S.png,4,Word 2 of 6,1,Image 9 of 40,1,very_global.png,7,very_specific.png,6,less_global.png,9,less_specific.png,8,person,5,266 masked
89643498,testBlock,centre_mouse,6,450,reveal,im0000109.jpg,N_1.png,1,N_2.png,2,N_3.png,3,N_4.png,4,Y_1.png,1,Y_2.png,2,Y_3.png,3,Y_4.png,4,response_G.png,3,response_S.png,4,Word 2 of 6,1,Image 9 of 40,1,very_global.png,7,very_specific.png,6,less_global.png,9,less_specific.png,8,0,0,266 masked
89643498,testBlock,present_trial,7,1029,yes_3,im0000109.jpg,N_1.png,1,N_2.png,2,N_3.png,3,N_4.png,4,Y_1.png,1,Y_2.png,2,Y_3.png,3,Y_4.png,4,response_G.png,3,response_S.png,4,Word 3 of 6,1,Image 9 of 40,1,very_global.png,7,very_specific.png,6,less_global.png,9,less_specific.png,8,water,2,266 masked
89643498,testBlock,centre_mouse,8,748,reveal,im0000109.jpg,N_1.png,1,N_2.png,2,N_3.png,3,N_4.png,4,Y_1.png,1,Y_2.png,2,Y_3.png,3,Y_4.png,4,response_G.png,3,response_S.png,4,Word 3 of 6,1,Image 9 of 40,1,very_global.png,7,very_specific.png,6,less_global.png,9,less_specific.png,8,0,0,266 masked
89643498,testBlock,present_trial,9,7112,yes_2,im0000109.jpg,N_1.png,1,N_2.png,2,N_3.png,3,N_4.png,4,Y_1.png,1,Y_2.png,2,Y_3.png,3,Y_4.png,4,response_G.png,3,response_S.png,4,Word 4 of 6,1,Image 9 of 40,1,very_global.png,7,very_specific.png,6,less_global.png,9,less_specific.png,8,hose,1,266 masked
89643498,testBlock,centre_mouse,10,717,reveal,im0000109.jpg,N_1.png,1,N_2.png,2,N_3.png,3,N_4.png,4,Y_1.png,1,Y_2.png,2,Y_3.png,3,Y_4.png,4,response_G.png,3,response_S.png,4,Word 4 of 6,1,Image 9 of 40,1,very_global.png,7,very_specific.png,6,less_global.png,9,less_specific.png,8,0,0,266 masked
89643498,testBlock,present_trial,11,1402,no_2,im0000109.jpg,N_1.png,1,N_2.png,2,N_3.png,3,N_4.png,4,Y_1.png,1,Y_2.png,2,Y_3.png,3,Y_4.png,4,response_G.png,3,response_S.png,4,Word 5 of 6,1,Image 9 of 40,1,very_global.png,7,very_specific.png,6,less_global.png,9,less_specific.png,8,stand,4,266 masked
89643498,testBlock,centre_mouse,12,277,reveal,im0000109.jpg,N_1.png,1,N_2.png,2,N_3.png,3,N_4.png,4,Y_1.png,1,Y_2.png,2,Y_3.png,3,Y_4.png,4,response_G.png,3,response_S.png,4,Word 5 of 6,1,Image 9 of 40,1,very_global.png,7,very_specific.png,6,less_global.png,9,less_specific.png,8,0,0,266 masked
89643498,testBlock,present_trial,13,1479,yes_2,im0000109.jpg,N_1.png,1,N_2.png,2,N_3.png,3,N_4.png,4,Y_1.png,1,Y_2.png,2,Y_3.png,3,Y_4.png,4,response_G.png,3,response_S.png,4,Word 6 of 6,1,Image 9 of 40,1,very_global.png,7,very_specific.png,6,less_global.png,9,less_specific.png,8,outside,6,266 masked
89643498,testBlock,centre_mouse,14,328,reveal,im0000109.jpg,N_1.png,1,N_2.png,2,N_3.png,3,N_4.png,4,Y_1.png,1,Y_2.png,2,Y_3.png,3,Y_4.png,4,response_G.png,3,response_S.png,4,Word 6 of 6,1,Image 9 of 40,1,very_global.png,7,very_specific.png,6,less_global.png,9,less_specific.png,8,0,0,266 masked
89643498,testBlock,test,1,0,0,im0000109.jpg,+,1,im0000260.jpg,22,mask5.jpg,5,mask1.jpg,1,mask1.jpg,1,mask1.jpg,1,mask3.jpg,3,0,0,0,0,0,0,0,0,0,0,0,0,0,0,0,0,0,0,0,0,266 masked
89643498,testBlock,centre_mouse,2,835,reveal,im0000109.jpg,N_1.png,1,N_2.png,2,N_3.png,3,N_4.png,4,Y_1.png,1,Y_2.png,2,Y_3.png,3,Y_4.png,4,response_G.png,3,response_S.png,4,Word 0 of 6,1,Image 10 of 40,1,very_global.png,7,very_specific.png,6,less_global.png,9,less_specific.png,8,0,0,266 masked
89643498,testBlock,present_trial,3,1856,no_2,im0000260.jpg,N_1.png,1,N_2.png,2,N_3.png,3,N_4.png,4,Y_1.png,1,Y_2.png,2,Y_3.png,3,Y_4.png,4,response_G.png,3,response_S.png,4,Word 1 of 6,1,Image 10 of 40,1,very_global.png,7,very_specific.png,6,less_global.png,9,less_specific.png,8,sand,6,266 masked
89643498,testBlock,centre_mouse,4,515,reveal,im0000260.jpg,N_1.png,1,N_2.png,2,N_3.png,3,N_4.png,4,Y_1.png,1,Y_2.png,2,Y_3.png,3,Y_4.png,4,response_G.png,3,response_S.png,4,Word 1 of 6,1,Image 10 of 40,1,very_global.png,7,very_specific.png,6,less_global.png,9,less_specific.png,8,0,0,266 masked
89643498,testBlock,present_trial,5,1196,yes_2,im0000260.jpg,N_1.png,1,N_2.png,2,N_3.png,3,N_4.png,4,Y_1.png,1,Y_2.png,2,Y_3.png,3,Y_4.png,4,response_G.png,3,response_S.png,4,Word 2 of 6,1,Image 10 of 40,1,very_global.png,7,very_specific.png,6,less_global.png,9,less_specific.png,8,tree,5,266 masked
89643498,testBlock,centre_mouse,6,265,reveal,im0000260.jpg,N_1.png,1,N_2.png,2,N_3.png,3,N_4.png,4,Y_1.png,1,Y_2.png,2,Y_3.png,3,Y_4.png,4,response_G.png,3,response_S.png,4,Word 2 of 6,1,Image 10 of 40,1,very_global.png,7,very_specific.png,6,less_global.png,9,less_specific.png,8,0,0,266 masked
89643498,testBlock,present_trial,7,1156,no_2,im0000260.jpg,N_1.png,1,N_2.png,2,N_3.png,3,N_4.png,4,Y_1.png,1,Y_2.png,2,Y_3.png,3,Y_4.png,4,response_G.png,3,response_S.png,4,Word 3 of 6,1,Image 10 of 40,1,very_global.png,7,very_specific.png,6,less_global.png,9,less_specific.png,8,house,4,266 masked
89643498,testBlock,centre_mouse,8,306,reveal,im0000260.jpg,N_1.png,1,N_2.png,2,N_3.png,3,N_4.png,4,Y_1.png,1,Y_2.png,2,Y_3.png,3,Y_4.png,4,response_G.png,3,response_S.png,4,Word 3 of 6,1,Image 10 of 40,1,very_global.png,7,very_specific.png,6,less_global.png,9,less_specific.png,8,0,0,266 masked
89643498,testBlock,present_trial,9,1341,yes_3,im0000260.jpg,N_1.png,1,N_2.png,2,N_3.png,3,N_4.png,4,Y_1.png,1,Y_2.png,2,Y_3.png,3,Y_4.png,4,response_G.png,3,response_S.png,4,Word 4 of 6,1,Image 10 of 40,1,very_global.png,7,very_specific.png,6,less_global.png,9,less_specific.png,8,mud,2,266 masked
89643498,testBlock,centre_mouse,10,233,reveal,im0000260.jpg,N_1.png,1,N_2.png,2,N_3.png,3,N_4.png,4,Y_1.png,1,Y_2.png,2,Y_3.png,3,Y_4.png,4,response_G.png,3,response_S.png,4,Word 4 of 6,1,Image 10 of 40,1,very_global.png,7,very_specific.png,6,less_global.png,9,less_specific.png,8,0,0,266 masked
89643498,testBlock,present_trial,11,1313,no_1,im0000260.jpg,N_1.png,1,N_2.png,2,N_3.png,3,N_4.png,4,Y_1.png,1,Y_2.png,2,Y_3.png,3,Y_4.png,4,response_G.png,3,response_S.png,4,Word 5 of 6,1,Image 10 of 40,1,very_global.png,7,very_specific.png,6,less_global.png,9,less_specific.png,8,poor,3,266 masked
89643498,testBlock,centre_mouse,12,293,reveal,im0000260.jpg,N_1.png,1,N_2.png,2,N_3.png,3,N_4.png,4,Y_1.png,1,Y_2.png,2,Y_3.png,3,Y_4.png,4,response_G.png,3,response_S.png,4,Word 5 of 6,1,Image 10 of 40,1,very_global.png,7,very_specific.png,6,less_global.png,9,less_specific.png,8,0,0,266 masked
89643498,testBlock,present_trial,13,1536,yes_1,im0000260.jpg,N_1.png,1,N_2.png,2,N_3.png,3,N_4.png,4,Y_1.png,1,Y_2.png,2,Y_3.png,3,Y_4.png,4,response_G.png,3,response_S.png,4,Word 6 of 6,1,Image 10 of 40,1,very_global.png,7,very_specific.png,6,less_global.png,9,less_specific.png,8,hut,1,266 masked
89643498,testBlock,centre_mouse,14,319,reveal,im0000260.jpg,N_1.png,1,N_2.png,2,N_3.png,3,N_4.png,4,Y_1.png,1,Y_2.png,2,Y_3.png,3,Y_4.png,4,response_G.png,3,response_S.png,4,Word 6 of 6,1,Image 10 of 40,1,very_global.png,7,very_specific.png,6,less_global.png,9,less_specific.png,8,0,0,266 masked
89643498,testBlock,test,1,0,0,im0000260.jpg,+,1,im0000321.jpg,31,mask1.jpg,1,mask4.jpg,4,mask2.jpg,2,mask3.jpg,3,mask2.jpg,2,0,0,0,0,0,0,0,0,0,0,0,0,0,0,0,0,0,0,0,0,266 masked
89643498,testBlock,centre_mouse,2,467,reveal,im0000260.jpg,N_1.png,1,N_2.png,2,N_3.png,3,N_4.png,4,Y_1.png,1,Y_2.png,2,Y_3.png,3,Y_4.png,4,response_G.png,3,response_S.png,4,Word 0 of 6,1,Image 11 of 40,1,very_global.png,7,very_specific.png,6,less_global.png,9,less_specific.png,8,0,0,266 masked
89643498,testBlock,present_trial,3,877,no_2,im0000321.jpg,N_1.png,1,N_2.png,2,N_3.png,3,N_4.png,4,Y_1.png,1,Y_2.png,2,Y_3.png,3,Y_4.png,4,response_G.png,3,response_S.png,4,Word 1 of 6,1,Image 11 of 40,1,very_global.png,7,very_specific.png,6,less_global.png,9,less_specific.png,8,cap,4,266 masked
89643498,testBlock,centre_mouse,4,425,reveal,im0000321.jpg,N_1.png,1,N_2.png,2,N_3.png,3,N_4.png,4,Y_1.png,1,Y_2.png,2,Y_3.png,3,Y_4.png,4,response_G.png,3,response_S.png,4,Word 1 of 6,1,Image 11 of 40,1,very_global.png,7,very_specific.png,6,less_global.png,9,less_specific.png,8,0,0,266 masked
89643498,testBlock,present_trial,5,958,yes_2,im0000321.jpg,N_1.png,1,N_2.png,2,N_3.png,3,N_4.png,4,Y_1.png,1,Y_2.png,2,Y_3.png,3,Y_4.png,4,response_G.png,3,response_S.png,4,Word 2 of 6,1,Image 11 of 40,1,very_global.png,7,very_specific.png,6,less_global.png,9,less_specific.png,8,road,6,266 masked
89643498,testBlock,centre_mouse,6,212,reveal,im0000321.jpg,N_1.png,1,N_2.png,2,N_3.png,3,N_4.png,4,Y_1.png,1,Y_2.png,2,Y_3.png,3,Y_4.png,4,response_G.png,3,response_S.png,4,Word 2 of 6,1,Image 11 of 40,1,very_global.png,7,very_specific.png,6,less_global.png,9,less_specific.png,8,0,0,266 masked
89643498,testBlock,present_trial,7,1532,no_2,im0000321.jpg,N_1.png,1,N_2.png,2,N_3.png,3,N_4.png,4,Y_1.png,1,Y_2.png,2,Y_3.png,3,Y_4.png,4,response_G.png,3,response_S.png,4,Word 3 of 6,1,Image 11 of 40,1,very_global.png,7,very_specific.png,6,less_global.png,9,less_specific.png,8,telephone,2,266 masked
89643498,testBlock,centre_mouse,8,299,reveal,im0000321.jpg,N_1.png,1,N_2.png,2,N_3.png,3,N_4.png,4,Y_1.png,1,Y_2.png,2,Y_3.png,3,Y_4.png,4,response_G.png,3,response_S.png,4,Word 3 of 6,1,Image 11 of 40,1,very_global.png,7,very_specific.png,6,less_global.png,9,less_specific.png,8,0,0,266 masked
89643498,testBlock,present_trial,9,1087,no_3,im0000321.jpg,N_1.png,1,N_2.png,2,N_3.png,3,N_4.png,4,Y_1.png,1,Y_2.png,2,Y_3.png,3,Y_4.png,4,response_G.png,3,response_S.png,4,Word 4 of 6,1,Image 11 of 40,1,very_global.png,7,very_specific.png,6,less_global.png,9,less_specific.png,8,person,3,266 masked
89643498,testBlock,centre_mouse,10,505,reveal,im0000321.jpg,N_1.png,1,N_2.png,2,N_3.png,3,N_4.png,4,Y_1.png,1,Y_2.png,2,Y_3.png,3,Y_4.png,4,response_G.png,3,response_S.png,4,Word 4 of 6,1,Image 11 of 40,1,very_global.png,7,very_specific.png,6,less_global.png,9,less_specific.png,8,0,0,266 masked
89643498,testBlock,present_trial,11,840,no_2,im0000321.jpg,N_1.png,1,N_2.png,2,N_3.png,3,N_4.png,4,Y_1.png,1,Y_2.png,2,Y_3.png,3,Y_4.png,4,response_G.png,3,response_S.png,4,Word 5 of 6,1,Image 11 of 40,1,very_global.png,7,very_specific.png,6,less_global.png,9,less_specific.png,8,talk,5,266 masked
89643498,testBlock,centre_mouse,12,337,reveal,im0000321.jpg,N_1.png,1,N_2.png,2,N_3.png,3,N_4.png,4,Y_1.png,1,Y_2.png,2,Y_3.png,3,Y_4.png,4,response_G.png,3,response_S.png,4,Word 5 of 6,1,Image 11 of 40,1,very_global.png,7,very_specific.png,6,less_global.png,9,less_specific.png,8,0,0,266 masked
89643498,testBlock,present_trial,13,1312,no_2,im0000321.jpg,N_1.png,1,N_2.png,2,N_3.png,3,N_4.png,4,Y_1.png,1,Y_2.png,2,Y_3.png,3,Y_4.png,4,response_G.png,3,response_S.png,4,Word 6 of 6,1,Image 11 of 40,1,very_global.png,7,very_specific.png,6,less_global.png,9,less_specific.png,8,hat,1,266 masked
89643498,testBlock,centre_mouse,14,303,reveal,im0000321.jpg,N_1.png,1,N_2.png,2,N_3.png,3,N_4.png,4,Y_1.png,1,Y_2.png,2,Y_3.png,3,Y_4.png,4,response_G.png,3,response_S.png,4,Word 6 of 6,1,Image 11 of 40,1,very_global.png,7,very_specific.png,6,less_global.png,9,less_specific.png,8,0,0,266 masked
89643498,testBlock,test,1,0,0,im0000321.jpg,+,1,im0000056.jpg,3,mask3.jpg,3,mask2.jpg,2,mask4.jpg,4,mask5.jpg,5,mask1.jpg,1,0,0,0,0,0,0,0,0,0,0,0,0,0,0,0,0,0,0,0,0,266 masked
89643498,testBlock,centre_mouse,2,301,reveal,im0000321.jpg,N_1.png,1,N_2.png,2,N_3.png,3,N_4.png,4,Y_1.png,1,Y_2.png,2,Y_3.png,3,Y_4.png,4,response_G.png,3,response_S.png,4,Word 0 of 6,1,Image 12 of 40,1,very_global.png,7,very_specific.png,6,less_global.png,9,less_specific.png,8,0,0,266 masked
89643498,testBlock,present_trial,3,1373,yes_3,im0000056.jpg,N_1.png,1,N_2.png,2,N_3.png,3,N_4.png,4,Y_1.png,1,Y_2.png,2,Y_3.png,3,Y_4.png,4,response_G.png,3,response_S.png,4,Word 1 of 6,1,Image 12 of 40,1,very_global.png,7,very_specific.png,6,less_global.png,9,less_specific.png,8,water,2,266 masked
89643498,testBlock,centre_mouse,4,520,reveal,im0000056.jpg,N_1.png,1,N_2.png,2,N_3.png,3,N_4.png,4,Y_1.png,1,Y_2.png,2,Y_3.png,3,Y_4.png,4,response_G.png,3,response_S.png,4,Word 1 of 6,1,Image 12 of 40,1,very_global.png,7,very_specific.png,6,less_global.png,9,less_specific.png,8,0,0,266 masked
89643498,testBlock,present_trial,5,1115,yes_3,im0000056.jpg,N_1.png,1,N_2.png,2,N_3.png,3,N_4.png,4,Y_1.png,1,Y_2.png,2,Y_3.png,3,Y_4.png,4,response_G.png,3,response_S.png,4,Word 2 of 6,1,Image 12 of 40,1,very_global.png,7,very_specific.png,6,less_global.png,9,less_specific.png,8,daytime,3,266 masked
89643498,testBlock,centre_mouse,6,16158,reveal,im0000056.jpg,N_1.png,1,N_2.png,2,N_3.png,3,N_4.png,4,Y_1.png,1,Y_2.png,2,Y_3.png,3,Y_4.png,4,response_G.png,3,response_S.png,4,Word 2 of 6,1,Image 12 of 40,1,very_global.png,7,very_specific.png,6,less_global.png,9,less_specific.png,8,0,0,266 masked
89643498,testBlock,present_trial,7,1568,yes_2,im0000056.jpg,N_1.png,1,N_2.png,2,N_3.png,3,N_4.png,4,Y_1.png,1,Y_2.png,2,Y_3.png,3,Y_4.png,4,response_G.png,3,response_S.png,4,Word 3 of 6,1,Image 12 of 40,1,very_global.png,7,very_specific.png,6,less_global.png,9,less_specific.png,8,skyline,6,266 masked
89643498,testBlock,centre_mouse,8,505,reveal,im0000056.jpg,N_1.png,1,N_2.png,2,N_3.png,3,N_4.png,4,Y_1.png,1,Y_2.png,2,Y_3.png,3,Y_4.png,4,response_G.png,3,response_S.png,4,Word 3 of 6,1,Image 12 of 40,1,very_global.png,7,very_specific.png,6,less_global.png,9,less_specific.png,8,0,0,266 masked
89643498,testBlock,present_trial,9,775,yes_2,im0000056.jpg,N_1.png,1,N_2.png,2,N_3.png,3,N_4.png,4,Y_1.png,1,Y_2.png,2,Y_3.png,3,Y_4.png,4,response_G.png,3,response_S.png,4,Word 4 of 6,1,Image 12 of 40,1,very_global.png,7,very_specific.png,6,less_global.png,9,less_specific.png,8,city,5,266 masked
89643498,testBlock,centre_mouse,10,416,reveal,im0000056.jpg,N_1.png,1,N_2.png,2,N_3.png,3,N_4.png,4,Y_1.png,1,Y_2.png,2,Y_3.png,3,Y_4.png,4,response_G.png,3,response_S.png,4,Word 4 of 6,1,Image 12 of 40,1,very_global.png,7,very_specific.png,6,less_global.png,9,less_specific.png,8,0,0,266 masked
89643498,testBlock,present_trial,11,1330,yes_2,im0000056.jpg,N_1.png,1,N_2.png,2,N_3.png,3,N_4.png,4,Y_1.png,1,Y_2.png,2,Y_3.png,3,Y_4.png,4,response_G.png,3,response_S.png,4,Word 5 of 6,1,Image 12 of 40,1,very_global.png,7,very_specific.png,6,less_global.png,9,less_specific.png,8,people,4,266 masked
89643498,testBlock,centre_mouse,12,416,reveal,im0000056.jpg,N_1.png,1,N_2.png,2,N_3.png,3,N_4.png,4,Y_1.png,1,Y_2.png,2,Y_3.png,3,Y_4.png,4,response_G.png,3,response_S.png,4,Word 5 of 6,1,Image 12 of 40,1,very_global.png,7,very_specific.png,6,less_global.png,9,less_specific.png,8,0,0,266 masked
89643498,testBlock,present_trial,13,2499,yes_3,im0000056.jpg,N_1.png,1,N_2.png,2,N_3.png,3,N_4.png,4,Y_1.png,1,Y_2.png,2,Y_3.png,3,Y_4.png,4,response_G.png,3,response_S.png,4,Word 6 of 6,1,Image 12 of 40,1,very_global.png,7,very_specific.png,6,less_global.png,9,less_specific.png,8,tree,1,266 masked
89643498,testBlock,centre_mouse,14,297,reveal,im0000056.jpg,N_1.png,1,N_2.png,2,N_3.png,3,N_4.png,4,Y_1.png,1,Y_2.png,2,Y_3.png,3,Y_4.png,4,response_G.png,3,response_S.png,4,Word 6 of 6,1,Image 12 of 40,1,very_global.png,7,very_specific.png,6,less_global.png,9,less_specific.png,8,0,0,266 masked
89643498,testBlock,test,1,0,0,im0000056.jpg,+,1,im0000239.jpg,19,mask1.jpg,1,mask4.jpg,4,mask5.jpg,5,mask4.jpg,4,mask3.jpg,3,0,0,0,0,0,0,0,0,0,0,0,0,0,0,0,0,0,0,0,0,266 masked
89643498,testBlock,centre_mouse,2,244,reveal,im0000056.jpg,N_1.png,1,N_2.png,2,N_3.png,3,N_4.png,4,Y_1.png,1,Y_2.png,2,Y_3.png,3,Y_4.png,4,response_G.png,3,response_S.png,4,Word 0 of 6,1,Image 13 of 40,1,very_global.png,7,very_specific.png,6,less_global.png,9,less_specific.png,8,0,0,266 masked
89643498,testBlock,present_trial,3,1286,no_2,im0000239.jpg,N_1.png,1,N_2.png,2,N_3.png,3,N_4.png,4,Y_1.png,1,Y_2.png,2,Y_3.png,3,Y_4.png,4,response_G.png,3,response_S.png,4,Word 1 of 6,1,Image 13 of 40,1,very_global.png,7,very_specific.png,6,less_global.png,9,less_specific.png,8,farm,3,266 masked
89643498,testBlock,centre_mouse,4,305,reveal,im0000239.jpg,N_1.png,1,N_2.png,2,N_3.png,3,N_4.png,4,Y_1.png,1,Y_2.png,2,Y_3.png,3,Y_4.png,4,response_G.png,3,response_S.png,4,Word 1 of 6,1,Image 13 of 40,1,very_global.png,7,very_specific.png,6,less_global.png,9,less_specific.png,8,0,0,266 masked
89643498,testBlock,present_trial,5,825,yes_3,im0000239.jpg,N_1.png,1,N_2.png,2,N_3.png,3,N_4.png,4,Y_1.png,1,Y_2.png,2,Y_3.png,3,Y_4.png,4,response_G.png,3,response_S.png,4,Word 2 of 6,1,Image 13 of 40,1,very_global.png,7,very_specific.png,6,less_global.png,9,less_specific.png,8,sunny,5,266 masked
89643498,testBlock,centre_mouse,6,481,reveal,im0000239.jpg,N_1.png,1,N_2.png,2,N_3.png,3,N_4.png,4,Y_1.png,1,Y_2.png,2,Y_3.png,3,Y_4.png,4,response_G.png,3,response_S.png,4,Word 2 of 6,1,Image 13 of 40,1,very_global.png,7,very_specific.png,6,less_global.png,9,less_specific.png,8,0,0,266 masked
89643498,testBlock,present_trial,7,1073,no_3,im0000239.jpg,N_1.png,1,N_2.png,2,N_3.png,3,N_4.png,4,Y_1.png,1,Y_2.png,2,Y_3.png,3,Y_4.png,4,response_G.png,3,response_S.png,4,Word 3 of 6,1,Image 13 of 40,1,very_global.png,7,very_specific.png,6,less_global.png,9,less_specific.png,8,work,6,266 masked
89643498,testBlock,centre_mouse,8,260,reveal,im0000239.jpg,N_1.png,1,N_2.png,2,N_3.png,3,N_4.png,4,Y_1.png,1,Y_2.png,2,Y_3.png,3,Y_4.png,4,response_G.png,3,response_S.png,4,Word 3 of 6,1,Image 13 of 40,1,very_global.png,7,very_specific.png,6,less_global.png,9,less_specific.png,8,0,0,266 masked
89643498,testBlock,present_trial,9,999,no_1,im0000239.jpg,N_1.png,1,N_2.png,2,N_3.png,3,N_4.png,4,Y_1.png,1,Y_2.png,2,Y_3.png,3,Y_4.png,4,response_G.png,3,response_S.png,4,Word 4 of 6,1,Image 13 of 40,1,very_global.png,7,very_specific.png,6,less_global.png,9,less_specific.png,8,tractor,2,266 masked
89643498,testBlock,centre_mouse,10,342,reveal,im0000239.jpg,N_1.png,1,N_2.png,2,N_3.png,3,N_4.png,4,Y_1.png,1,Y_2.png,2,Y_3.png,3,Y_4.png,4,response_G.png,3,response_S.png,4,Word 4 of 6,1,Image 13 of 40,1,very_global.png,7,very_specific.png,6,less_global.png,9,less_specific.png,8,0,0,266 masked
89643498,testBlock,present_trial,11,1592,yes_1,im0000239.jpg,N_1.png,1,N_2.png,2,N_3.png,3,N_4.png,4,Y_1.png,1,Y_2.png,2,Y_3.png,3,Y_4.png,4,response_G.png,3,response_S.png,4,Word 5 of 6,1,Image 13 of 40,1,very_global.png,7,very_specific.png,6,less_global.png,9,less_specific.png,8,field,1,266 masked
89643498,testBlock,centre_mouse,12,564,reveal,im0000239.jpg,N_1.png,1,N_2.png,2,N_3.png,3,N_4.png,4,Y_1.png,1,Y_2.png,2,Y_3.png,3,Y_4.png,4,response_G.png,3,response_S.png,4,Word 5 of 6,1,Image 13 of 40,1,very_global.png,7,very_specific.png,6,less_global.png,9,less_specific.png,8,0,0,266 masked
89643498,testBlock,present_trial,13,1411,no_2,im0000239.jpg,N_1.png,1,N_2.png,2,N_3.png,3,N_4.png,4,Y_1.png,1,Y_2.png,2,Y_3.png,3,Y_4.png,4,response_G.png,3,response_S.png,4,Word 6 of 6,1,Image 13 of 40,1,very_global.png,7,very_specific.png,6,less_global.png,9,less_specific.png,8,harvest,4,266 masked
89643498,testBlock,centre_mouse,14,320,reveal,im0000239.jpg,N_1.png,1,N_2.png,2,N_3.png,3,N_4.png,4,Y_1.png,1,Y_2.png,2,Y_3.png,3,Y_4.png,4,response_G.png,3,response_S.png,4,Word 6 of 6,1,Image 13 of 40,1,very_global.png,7,very_specific.png,6,less_global.png,9,less_specific.png,8,0,0,266 masked
89643498,testBlock,test,1,0,0,im0000239.jpg,+,1,im0000261.jpg,23,mask4.jpg,4,mask3.jpg,3,mask3.jpg,3,mask1.jpg,1,mask2.jpg,2,0,0,0,0,0,0,0,0,0,0,0,0,0,0,0,0,0,0,0,0,266 masked
89643498,testBlock,centre_mouse,2,566,reveal,im0000239.jpg,N_1.png,1,N_2.png,2,N_3.png,3,N_4.png,4,Y_1.png,1,Y_2.png,2,Y_3.png,3,Y_4.png,4,response_G.png,3,response_S.png,4,Word 0 of 6,1,Image 14 of 40,1,very_global.png,7,very_specific.png,6,less_global.png,9,less_specific.png,8,0,0,266 masked
89643498,testBlock,present_trial,3,1572,no_2,im0000261.jpg,N_1.png,1,N_2.png,2,N_3.png,3,N_4.png,4,Y_1.png,1,Y_2.png,2,Y_3.png,3,Y_4.png,4,response_G.png,3,response_S.png,4,Word 1 of 6,1,Image 14 of 40,1,very_global.png,7,very_specific.png,6,less_global.png,9,less_specific.png,8,costume,5,266 masked
89643498,testBlock,centre_mouse,4,514,reveal,im0000261.jpg,N_1.png,1,N_2.png,2,N_3.png,3,N_4.png,4,Y_1.png,1,Y_2.png,2,Y_3.png,3,Y_4.png,4,response_G.png,3,response_S.png,4,Word 1 of 6,1,Image 14 of 40,1,very_global.png,7,very_specific.png,6,less_global.png,9,less_specific.png,8,0,0,266 masked
89643498,testBlock,present_trial,5,827,no_2,im0000261.jpg,N_1.png,1,N_2.png,2,N_3.png,3,N_4.png,4,Y_1.png,1,Y_2.png,2,Y_3.png,3,Y_4.png,4,response_G.png,3,response_S.png,4,Word 2 of 6,1,Image 14 of 40,1,very_global.png,7,very_specific.png,6,less_global.png,9,less_specific.png,8,colorful,6,266 masked
89643498,testBlock,centre_mouse,6,338,reveal,im0000261.jpg,N_1.png,1,N_2.png,2,N_3.png,3,N_4.png,4,Y_1.png,1,Y_2.png,2,Y_3.png,3,Y_4.png,4,response_G.png,3,response_S.png,4,Word 2 of 6,1,Image 14 of 40,1,very_global.png,7,very_specific.png,6,less_global.png,9,less_specific.png,8,0,0,266 masked
89643498,testBlock,present_trial,7,454,no_2,im0000261.jpg,N_1.png,1,N_2.png,2,N_3.png,3,N_4.png,4,Y_1.png,1,Y_2.png,2,Y_3.png,3,Y_4.png,4,response_G.png,3,response_S.png,4,Word 3 of 6,1,Image 14 of 40,1,very_global.png,7,very_specific.png,6,less_global.png,9,less_specific.png,8,fun,2,266 masked
89643498,testBlock,centre_mouse,8,301,reveal,im0000261.jpg,N_1.png,1,N_2.png,2,N_3.png,3,N_4.png,4,Y_1.png,1,Y_2.png,2,Y_3.png,3,Y_4.png,4,response_G.png,3,response_S.png,4,Word 3 of 6,1,Image 14 of 40,1,very_global.png,7,very_specific.png,6,less_global.png,9,less_specific.png,8,0,0,266 masked
89643498,testBlock,present_trial,9,488,no_2,im0000261.jpg,N_1.png,1,N_2.png,2,N_3.png,3,N_4.png,4,Y_1.png,1,Y_2.png,2,Y_3.png,3,Y_4.png,4,response_G.png,3,response_S.png,4,Word 4 of 6,1,Image 14 of 40,1,very_global.png,7,very_specific.png,6,less_global.png,9,less_specific.png,8,people,4,266 masked
89643498,testBlock,centre_mouse,10,519,reveal,im0000261.jpg,N_1.png,1,N_2.png,2,N_3.png,3,N_4.png,4,Y_1.png,1,Y_2.png,2,Y_3.png,3,Y_4.png,4,response_G.png,3,response_S.png,4,Word 4 of 6,1,Image 14 of 40,1,very_global.png,7,very_specific.png,6,less_global.png,9,less_specific.png,8,0,0,266 masked
89643498,testBlock,present_trial,11,425,no_2,im0000261.jpg,N_1.png,1,N_2.png,2,N_3.png,3,N_4.png,4,Y_1.png,1,Y_2.png,2,Y_3.png,3,Y_4.png,4,response_G.png,3,response_S.png,4,Word 5 of 6,1,Image 14 of 40,1,very_global.png,7,very_specific.png,6,less_global.png,9,less_specific.png,8,dance,1,266 masked
89643498,testBlock,centre_mouse,12,314,reveal,im0000261.jpg,N_1.png,1,N_2.png,2,N_3.png,3,N_4.png,4,Y_1.png,1,Y_2.png,2,Y_3.png,3,Y_4.png,4,response_G.png,3,response_S.png,4,Word 5 of 6,1,Image 14 of 40,1,very_global.png,7,very_specific.png,6,less_global.png,9,less_specific.png,8,0,0,266 masked
89643498,testBlock,present_trial,13,518,no_2,im0000261.jpg,N_1.png,1,N_2.png,2,N_3.png,3,N_4.png,4,Y_1.png,1,Y_2.png,2,Y_3.png,3,Y_4.png,4,response_G.png,3,response_S.png,4,Word 6 of 6,1,Image 14 of 40,1,very_global.png,7,very_specific.png,6,less_global.png,9,less_specific.png,8,hat,3,266 masked
89643498,testBlock,centre_mouse,14,320,reveal,im0000261.jpg,N_1.png,1,N_2.png,2,N_3.png,3,N_4.png,4,Y_1.png,1,Y_2.png,2,Y_3.png,3,Y_4.png,4,response_G.png,3,response_S.png,4,Word 6 of 6,1,Image 14 of 40,1,very_global.png,7,very_specific.png,6,less_global.png,9,less_specific.png,8,0,0,266 masked
89643498,testBlock,test,1,0,0,im0000261.jpg,+,1,im0000313.jpg,30,mask5.jpg,5,mask1.jpg,1,mask1.jpg,1,mask3.jpg,3,mask1.jpg,1,0,0,0,0,0,0,0,0,0,0,0,0,0,0,0,0,0,0,0,0,266 masked
89643498,testBlock,centre_mouse,2,601,reveal,im0000261.jpg,N_1.png,1,N_2.png,2,N_3.png,3,N_4.png,4,Y_1.png,1,Y_2.png,2,Y_3.png,3,Y_4.png,4,response_G.png,3,response_S.png,4,Word 0 of 6,1,Image 15 of 40,1,very_global.png,7,very_specific.png,6,less_global.png,9,less_specific.png,8,0,0,266 masked
89643498,testBlock,present_trial,3,2896,no_2,im0000313.jpg,N_1.png,1,N_2.png,2,N_3.png,3,N_4.png,4,Y_1.png,1,Y_2.png,2,Y_3.png,3,Y_4.png,4,response_G.png,3,response_S.png,4,Word 1 of 6,1,Image 15 of 40,1,very_global.png,7,very_specific.png,6,less_global.png,9,less_specific.png,8,dress,5,266 masked
89643498,testBlock,centre_mouse,4,472,reveal,im0000313.jpg,N_1.png,1,N_2.png,2,N_3.png,3,N_4.png,4,Y_1.png,1,Y_2.png,2,Y_3.png,3,Y_4.png,4,response_G.png,3,response_S.png,4,Word 1 of 6,1,Image 15 of 40,1,very_global.png,7,very_specific.png,6,less_global.png,9,less_specific.png,8,0,0,266 masked
89643498,testBlock,present_trial,5,1256,no_1,im0000313.jpg,N_1.png,1,N_2.png,2,N_3.png,3,N_4.png,4,Y_1.png,1,Y_2.png,2,Y_3.png,3,Y_4.png,4,response_G.png,3,response_S.png,4,Word 2 of 6,1,Image 15 of 40,1,very_global.png,7,very_specific.png,6,less_global.png,9,less_specific.png,8,stand,6,266 masked
89643498,testBlock,centre_mouse,6,321,reveal,im0000313.jpg,N_1.png,1,N_2.png,2,N_3.png,3,N_4.png,4,Y_1.png,1,Y_2.png,2,Y_3.png,3,Y_4.png,4,response_G.png,3,response_S.png,4,Word 2 of 6,1,Image 15 of 40,1,very_global.png,7,very_specific.png,6,less_global.png,9,less_specific.png,8,0,0,266 masked
89643498,testBlock,present_trial,7,938,no_3,im0000313.jpg,N_1.png,1,N_2.png,2,N_3.png,3,N_4.png,4,Y_1.png,1,Y_2.png,2,Y_3.png,3,Y_4.png,4,response_G.png,3,response_S.png,4,Word 3 of 6,1,Image 15 of 40,1,very_global.png,7,very_specific.png,6,less_global.png,9,less_specific.png,8,girl,2,266 masked
89643498,testBlock,centre_mouse,8,228,reveal,im0000313.jpg,N_1.png,1,N_2.png,2,N_3.png,3,N_4.png,4,Y_1.png,1,Y_2.png,2,Y_3.png,3,Y_4.png,4,response_G.png,3,response_S.png,4,Word 3 of 6,1,Image 15 of 40,1,very_global.png,7,very_specific.png,6,less_global.png,9,less_specific.png,8,0,0,266 masked
89643498,testBlock,present_trial,9,650,no_3,im0000313.jpg,N_1.png,1,N_2.png,2,N_3.png,3,N_4.png,4,Y_1.png,1,Y_2.png,2,Y_3.png,3,Y_4.png,4,response_G.png,3,response_S.png,4,Word 4 of 6,1,Image 15 of 40,1,very_global.png,7,very_specific.png,6,less_global.png,9,less_specific.png,8,woman,4,266 masked
89643498,testBlock,centre_mouse,10,245,reveal,im0000313.jpg,N_1.png,1,N_2.png,2,N_3.png,3,N_4.png,4,Y_1.png,1,Y_2.png,2,Y_3.png,3,Y_4.png,4,response_G.png,3,response_S.png,4,Word 4 of 6,1,Image 15 of 40,1,very_global.png,7,very_specific.png,6,less_global.png,9,less_specific.png,8,0,0,266 masked
89643498,testBlock,present_trial,11,779,no_3,im0000313.jpg,N_1.png,1,N_2.png,2,N_3.png,3,N_4.png,4,Y_1.png,1,Y_2.png,2,Y_3.png,3,Y_4.png,4,response_G.png,3,response_S.png,4,Word 5 of 6,1,Image 15 of 40,1,very_global.png,7,very_specific.png,6,less_global.png,9,less_specific.png,8,sport,1,266 masked
89643498,testBlock,centre_mouse,12,497,reveal,im0000313.jpg,N_1.png,1,N_2.png,2,N_3.png,3,N_4.png,4,Y_1.png,1,Y_2.png,2,Y_3.png,3,Y_4.png,4,response_G.png,3,response_S.png,4,Word 5 of 6,1,Image 15 of 40,1,very_global.png,7,very_specific.png,6,less_global.png,9,less_specific.png,8,0,0,266 masked
89643498,testBlock,present_trial,13,1224,yes_1,im0000313.jpg,N_1.png,1,N_2.png,2,N_3.png,3,N_4.png,4,Y_1.png,1,Y_2.png,2,Y_3.png,3,Y_4.png,4,response_G.png,3,response_S.png,4,Word 6 of 6,1,Image 15 of 40,1,very_global.png,7,very_specific.png,6,less_global.png,9,less_specific.png,8,room,3,266 masked
89643498,testBlock,centre_mouse,14,313,reveal,im0000313.jpg,N_1.png,1,N_2.png,2,N_3.png,3,N_4.png,4,Y_1.png,1,Y_2.png,2,Y_3.png,3,Y_4.png,4,response_G.png,3,response_S.png,4,Word 6 of 6,1,Image 15 of 40,1,very_global.png,7,very_specific.png,6,less_global.png,9,less_specific.png,8,0,0,266 masked
89643498,testBlock,test,1,0,0,im0000313.jpg,+,1,im0000293.jpg,28,mask2.jpg,2,mask2.jpg,2,mask4.jpg,4,mask2.jpg,2,mask5.jpg,5,0,0,0,0,0,0,0,0,0,0,0,0,0,0,0,0,0,0,0,0,266 masked
89643498,testBlock,centre_mouse,2,454,reveal,im0000313.jpg,N_1.png,1,N_2.png,2,N_3.png,3,N_4.png,4,Y_1.png,1,Y_2.png,2,Y_3.png,3,Y_4.png,4,response_G.png,3,response_S.png,4,Word 0 of 6,1,Image 16 of 40,1,very_global.png,7,very_specific.png,6,less_global.png,9,less_specific.png,8,0,0,266 masked
89643498,testBlock,present_trial,3,1443,yes_3,im0000293.jpg,N_1.png,1,N_2.png,2,N_3.png,3,N_4.png,4,Y_1.png,1,Y_2.png,2,Y_3.png,3,Y_4.png,4,response_G.png,3,response_S.png,4,Word 1 of 6,1,Image 16 of 40,1,very_global.png,7,very_specific.png,6,less_global.png,9,less_specific.png,8,ocean,3,266 masked
89643498,testBlock,centre_mouse,4,285,reveal,im0000293.jpg,N_1.png,1,N_2.png,2,N_3.png,3,N_4.png,4,Y_1.png,1,Y_2.png,2,Y_3.png,3,Y_4.png,4,response_G.png,3,response_S.png,4,Word 1 of 6,1,Image 16 of 40,1,very_global.png,7,very_specific.png,6,less_global.png,9,less_specific.png,8,0,0,266 masked
89643498,testBlock,present_trial,5,4154,no_2,im0000293.jpg,N_1.png,1,N_2.png,2,N_3.png,3,N_4.png,4,Y_1.png,1,Y_2.png,2,Y_3.png,3,Y_4.png,4,response_G.png,3,response_S.png,4,Word 2 of 6,1,Image 16 of 40,1,very_global.png,7,very_specific.png,6,less_global.png,9,less_specific.png,8,ship,1,266 masked
89643498,testBlock,centre_mouse,6,312,reveal,im0000293.jpg,N_1.png,1,N_2.png,2,N_3.png,3,N_4.png,4,Y_1.png,1,Y_2.png,2,Y_3.png,3,Y_4.png,4,response_G.png,3,response_S.png,4,Word 2 of 6,1,Image 16 of 40,1,very_global.png,7,very_specific.png,6,less_global.png,9,less_specific.png,8,0,0,266 masked
89643498,testBlock,present_trial,7,741,yes_3,im0000293.jpg,N_1.png,1,N_2.png,2,N_3.png,3,N_4.png,4,Y_1.png,1,Y_2.png,2,Y_3.png,3,Y_4.png,4,response_G.png,3,response_S.png,4,Word 3 of 6,1,Image 16 of 40,1,very_global.png,7,very_specific.png,6,less_global.png,9,less_specific.png,8,water,4,266 masked
89643498,testBlock,centre_mouse,8,356,reveal,im0000293.jpg,N_1.png,1,N_2.png,2,N_3.png,3,N_4.png,4,Y_1.png,1,Y_2.png,2,Y_3.png,3,Y_4.png,4,response_G.png,3,response_S.png,4,Word 3 of 6,1,Image 16 of 40,1,very_global.png,7,very_specific.png,6,less_global.png,9,less_specific.png,8,0,0,266 masked
89643498,testBlock,present_trial,9,1097,no_2,im0000293.jpg,N_1.png,1,N_2.png,2,N_3.png,3,N_4.png,4,Y_1.png,1,Y_2.png,2,Y_3.png,3,Y_4.png,4,response_G.png,3,response_S.png,4,Word 4 of 6,1,Image 16 of 40,1,very_global.png,7,very_specific.png,6,less_global.png,9,less_specific.png,8,float,6,266 masked
89643498,testBlock,centre_mouse,10,238,reveal,im0000293.jpg,N_1.png,1,N_2.png,2,N_3.png,3,N_4.png,4,Y_1.png,1,Y_2.png,2,Y_3.png,3,Y_4.png,4,response_G.png,3,response_S.png,4,Word 4 of 6,1,Image 16 of 40,1,very_global.png,7,very_specific.png,6,less_global.png,9,less_specific.png,8,0,0,266 masked
89643498,testBlock,present_trial,11,1243,no_2,im0000293.jpg,N_1.png,1,N_2.png,2,N_3.png,3,N_4.png,4,Y_1.png,1,Y_2.png,2,Y_3.png,3,Y_4.png,4,response_G.png,3,response_S.png,4,Word 5 of 6,1,Image 16 of 40,1,very_global.png,7,very_specific.png,6,less_global.png,9,less_specific.png,8,cruise,2,266 masked
89643498,testBlock,centre_mouse,12,327,reveal,im0000293.jpg,N_1.png,1,N_2.png,2,N_3.png,3,N_4.png,4,Y_1.png,1,Y_2.png,2,Y_3.png,3,Y_4.png,4,response_G.png,3,response_S.png,4,Word 5 of 6,1,Image 16 of 40,1,very_global.png,7,very_specific.png,6,less_global.png,9,less_specific.png,8,0,0,266 masked
89643498,testBlock,present_trial,13,1226,yes_2,im0000293.jpg,N_1.png,1,N_2.png,2,N_3.png,3,N_4.png,4,Y_1.png,1,Y_2.png,2,Y_3.png,3,Y_4.png,4,response_G.png,3,response_S.png,4,Word 6 of 6,1,Image 16 of 40,1,very_global.png,7,very_specific.png,6,less_global.png,9,less_specific.png,8,blue,5,266 masked
89643498,testBlock,centre_mouse,14,370,reveal,im0000293.jpg,N_1.png,1,N_2.png,2,N_3.png,3,N_4.png,4,Y_1.png,1,Y_2.png,2,Y_3.png,3,Y_4.png,4,response_G.png,3,response_S.png,4,Word 6 of 6,1,Image 16 of 40,1,very_global.png,7,very_specific.png,6,less_global.png,9,less_specific.png,8,0,0,266 masked
89643498,testBlock,test,1,0,0,im0000293.jpg,+,1,im0000376.jpg,36,mask3.jpg,3,mask5.jpg,5,mask2.jpg,2,mask5.jpg,5,mask4.jpg,4,0,0,0,0,0,0,0,0,0,0,0,0,0,0,0,0,0,0,0,0,266 masked
89643498,testBlock,centre_mouse,2,311,reveal,im0000293.jpg,N_1.png,1,N_2.png,2,N_3.png,3,N_4.png,4,Y_1.png,1,Y_2.png,2,Y_3.png,3,Y_4.png,4,response_G.png,3,response_S.png,4,Word 0 of 6,1,Image 17 of 40,1,very_global.png,7,very_specific.png,6,less_global.png,9,less_specific.png,8,0,0,266 masked
89643498,testBlock,present_trial,3,1469,no_2,im0000376.jpg,N_1.png,1,N_2.png,2,N_3.png,3,N_4.png,4,Y_1.png,1,Y_2.png,2,Y_3.png,3,Y_4.png,4,response_G.png,3,response_S.png,4,Word 1 of 6,1,Image 17 of 40,1,very_global.png,7,very_specific.png,6,less_global.png,9,less_specific.png,8,truck,1,266 masked
89643498,testBlock,centre_mouse,4,376,reveal,im0000376.jpg,N_1.png,1,N_2.png,2,N_3.png,3,N_4.png,4,Y_1.png,1,Y_2.png,2,Y_3.png,3,Y_4.png,4,response_G.png,3,response_S.png,4,Word 1 of 6,1,Image 17 of 40,1,very_global.png,7,very_specific.png,6,less_global.png,9,less_specific.png,8,0,0,266 masked
89643498,testBlock,present_trial,5,1437,no_1,im0000376.jpg,N_1.png,1,N_2.png,2,N_3.png,3,N_4.png,4,Y_1.png,1,Y_2.png,2,Y_3.png,3,Y_4.png,4,response_G.png,3,response_S.png,4,Word 2 of 6,1,Image 17 of 40,1,very_global.png,7,very_specific.png,6,less_global.png,9,less_specific.png,8,highway,3,266 masked
89643498,testBlock,centre_mouse,6,306,reveal,im0000376.jpg,N_1.png,1,N_2.png,2,N_3.png,3,N_4.png,4,Y_1.png,1,Y_2.png,2,Y_3.png,3,Y_4.png,4,response_G.png,3,response_S.png,4,Word 2 of 6,1,Image 17 of 40,1,very_global.png,7,very_specific.png,6,less_global.png,9,less_specific.png,8,0,0,266 masked
89643498,testBlock,present_trial,7,697,no_1,im0000376.jpg,N_1.png,1,N_2.png,2,N_3.png,3,N_4.png,4,Y_1.png,1,Y_2.png,2,Y_3.png,3,Y_4.png,4,response_G.png,3,response_S.png,4,Word 3 of 6,1,Image 17 of 40,1,very_global.png,7,very_specific.png,6,less_global.png,9,less_specific.png,8,traffic,2,266 masked
89643498,testBlock,centre_mouse,8,270,reveal,im0000376.jpg,N_1.png,1,N_2.png,2,N_3.png,3,N_4.png,4,Y_1.png,1,Y_2.png,2,Y_3.png,3,Y_4.png,4,response_G.png,3,response_S.png,4,Word 3 of 6,1,Image 17 of 40,1,very_global.png,7,very_specific.png,6,less_global.png,9,less_specific.png,8,0,0,266 masked
89643498,testBlock,present_trial,9,396,no_1,im0000376.jpg,N_1.png,1,N_2.png,2,N_3.png,3,N_4.png,4,Y_1.png,1,Y_2.png,2,Y_3.png,3,Y_4.png,4,response_G.png,3,response_S.png,4,Word 4 of 6,1,Image 17 of 40,1,very_global.png,7,very_specific.png,6,less_global.png,9,less_specific.png,8,van,5,266 masked
89643498,testBlock,centre_mouse,10,528,reveal,im0000376.jpg,N_1.png,1,N_2.png,2,N_3.png,3,N_4.png,4,Y_1.png,1,Y_2.png,2,Y_3.png,3,Y_4.png,4,response_G.png,3,response_S.png,4,Word 4 of 6,1,Image 17 of 40,1,very_global.png,7,very_specific.png,6,less_global.png,9,less_specific.png,8,0,0,266 masked
89643498,testBlock,present_trial,11,337,no_1,im0000376.jpg,N_1.png,1,N_2.png,2,N_3.png,3,N_4.png,4,Y_1.png,1,Y_2.png,2,Y_3.png,3,Y_4.png,4,response_G.png,3,response_S.png,4,Word 5 of 6,1,Image 17 of 40,1,very_global.png,7,very_specific.png,6,less_global.png,9,less_specific.png,8,bike,4,266 masked
89643498,testBlock,centre_mouse,12,309,reveal,im0000376.jpg,N_1.png,1,N_2.png,2,N_3.png,3,N_4.png,4,Y_1.png,1,Y_2.png,2,Y_3.png,3,Y_4.png,4,response_G.png,3,response_S.png,4,Word 5 of 6,1,Image 17 of 40,1,very_global.png,7,very_specific.png,6,less_global.png,9,less_specific.png,8,0,0,266 masked
89643498,testBlock,present_trial,13,350,no_1,im0000376.jpg,N_1.png,1,N_2.png,2,N_3.png,3,N_4.png,4,Y_1.png,1,Y_2.png,2,Y_3.png,3,Y_4.png,4,response_G.png,3,response_S.png,4,Word 6 of 6,1,Image 17 of 40,1,very_global.png,7,very_specific.png,6,less_global.png,9,less_specific.png,8,road,6,266 masked
