subject	blockcode	trialcode	trialnum	latency	response	values.imageName	stimulusitem1	stimulusnumber1	stimulusitem2	stimulusnumber2	stimulusitem3	stimulusnumber3	stimulusitem4	stimulusnumber4	stimulusitem5	stimulusnumber5	stimulusitem6	stimulusnumber6	stimulusitem7	stimulusnumber7	stimulusitem8	stimulusnumber8	stimulusitem9	stimulusnumber9	stimulusitem10	stimulusnumber10	stimulusitem11	stimulusnumber11	stimulusitem12	stimulusnumber12	stimulusitem13	stimulusnumber13	stimulusitem14	stimulusnumber14	stimulusitem15	stimulusnumber15	stimulusitem16	stimulusnumber16	stimulusitem17	stimulusnumber17	stimulusitem18	stimulusnumber18	stimulusitem19	stimulusnumber19
1	reminder_practice	reminder_practice	1	1322	reveal	placeholder_image	Click the center square to proceed to the PRACTICE trials	1	reveal.png	5	0	0	0	0	0	0	0	0	0	0	0	0	0	0	0	0	0	0	0	0	0	0	0	0	0	0	0	0	0	0	0	0	0	0
1	practiceBlock	practice	1	1	0	Picture1.jpg	+	1	Picture3.jpg	3	mask2.jpg	2	mask3.jpg	3	mask1.jpg	1	mask2.jpg	2	mask4.jpg	4	0	0	0	0	0	0	0	0	0	0	0	0	0	0	0	0	0	0	0	0	0	0	0	0
1	practiceBlock	centre_mouse	2	1429	reveal	Picture1.jpg	N_1.png	1	N_2.png	2	N_3.png	3	N_4.png	4	Y_1.png	1	Y_2.png	2	Y_3.png	3	Y_4.png	4	response_G.png	3	response_S.png	4	Word 0 of 6	1	Image 1 of 3	1	very_global.png	7	very_specific.png	6	less_global.png	9	less_specific.png	8	reveal.png	5	0	0	0	0
1	practiceBlock	practice_trial	3	1323	yes_4	Picture3.jpg	N_1.png	1	N_2.png	2	N_3.png	3	N_4.png	4	Y_1.png	1	Y_2.png	2	Y_3.png	3	Y_4.png	4	response_G.png	3	response_S.png	4	Word 1 of 6	1	Image 1 of 3	1	very_global.png	7	very_specific.png	6	less_global.png	9	less_specific.png	8	reveal.png	5	mountain	1	0	0
1	practiceBlock	centre_mouse	4	1327	reveal	Picture3.jpg	N_1.png	1	N_2.png	2	N_3.png	3	N_4.png	4	Y_1.png	1	Y_2.png	2	Y_3.png	3	Y_4.png	4	response_G.png	3	response_S.png	4	Word 1 of 6	1	Image 1 of 3	1	very_global.png	7	very_specific.png	6	less_global.png	9	less_specific.png	8	reveal.png	5	0	0	0	0
1	practiceBlock	practice_trial	5	1708	yes_4	Picture3.jpg	N_1.png	1	N_2.png	2	N_3.png	3	N_4.png	4	Y_1.png	1	Y_2.png	2	Y_3.png	3	Y_4.png	4	response_G.png	3	response_S.png	4	Word 2 of 6	1	Image 1 of 3	1	very_global.png	7	very_specific.png	6	less_global.png	9	less_specific.png	8	reveal.png	5	sky	6	0	0
1	practiceBlock	centre_mouse	6	767	reveal	Picture3.jpg	N_1.png	1	N_2.png	2	N_3.png	3	N_4.png	4	Y_1.png	1	Y_2.png	2	Y_3.png	3	Y_4.png	4	response_G.png	3	response_S.png	4	Word 2 of 6	1	Image 1 of 3	1	very_global.png	7	very_specific.png	6	less_global.png	9	less_specific.png	8	reveal.png	5	0	0	0	0
1	practiceBlock	practice_trial	7	619	yes_4	Picture3.jpg	N_1.png	1	N_2.png	2	N_3.png	3	N_4.png	4	Y_1.png	1	Y_2.png	2	Y_3.png	3	Y_4.png	4	response_G.png	3	response_S.png	4	Word 3 of 6	1	Image 1 of 3	1	very_global.png	7	very_specific.png	6	less_global.png	9	less_specific.png	8	reveal.png	5	cloud	3	0	0
1	practiceBlock	centre_mouse	8	778	reveal	Picture3.jpg	N_1.png	1	N_2.png	2	N_3.png	3	N_4.png	4	Y_1.png	1	Y_2.png	2	Y_3.png	3	Y_4.png	4	response_G.png	3	response_S.png	4	Word 3 of 6	1	Image 1 of 3	1	very_global.png	7	very_specific.png	6	less_global.png	9	less_specific.png	8	reveal.png	5	0	0	0	0
1	practiceBlock	practice_trial	9	622	yes_4	Picture3.jpg	N_1.png	1	N_2.png	2	N_3.png	3	N_4.png	4	Y_1.png	1	Y_2.png	2	Y_3.png	3	Y_4.png	4	response_G.png	3	response_S.png	4	Word 4 of 6	1	Image 1 of 3	1	very_global.png	7	very_specific.png	6	less_global.png	9	less_specific.png	8	reveal.png	5	landscape	4	0	0
1	practiceBlock	centre_mouse	10	733	reveal	Picture3.jpg	N_1.png	1	N_2.png	2	N_3.png	3	N_4.png	4	Y_1.png	1	Y_2.png	2	Y_3.png	3	Y_4.png	4	response_G.png	3	response_S.png	4	Word 4 of 6	1	Image 1 of 3	1	very_global.png	7	very_specific.png	6	less_global.png	9	less_specific.png	8	reveal.png	5	0	0	0	0
1	practiceBlock	practice_trial	11	676	yes_4	Picture3.jpg	N_1.png	1	N_2.png	2	N_3.png	3	N_4.png	4	Y_1.png	1	Y_2.png	2	Y_3.png	3	Y_4.png	4	response_G.png	3	response_S.png	4	Word 5 of 6	1	Image 1 of 3	1	very_global.png	7	very_specific.png	6	less_global.png	9	less_specific.png	8	reveal.png	5	sun	2	0	0
1	practiceBlock	centre_mouse	12	785	reveal	Picture3.jpg	N_1.png	1	N_2.png	2	N_3.png	3	N_4.png	4	Y_1.png	1	Y_2.png	2	Y_3.png	3	Y_4.png	4	response_G.png	3	response_S.png	4	Word 5 of 6	1	Image 1 of 3	1	very_global.png	7	very_specific.png	6	less_global.png	9	less_specific.png	8	reveal.png	5	0	0	0	0
1	practiceBlock	practice_trial	13	858	yes_4	Picture3.jpg	N_1.png	1	N_2.png	2	N_3.png	3	N_4.png	4	Y_1.png	1	Y_2.png	2	Y_3.png	3	Y_4.png	4	response_G.png	3	response_S.png	4	Word 6 of 6	1	Image 1 of 3	1	very_global.png	7	very_specific.png	6	less_global.png	9	less_specific.png	8	reveal.png	5	blue	5	0	0
1	practiceBlock	centre_mouse	14	1016	reveal	Picture3.jpg	N_1.png	1	N_2.png	2	N_3.png	3	N_4.png	4	Y_1.png	1	Y_2.png	2	Y_3.png	3	Y_4.png	4	response_G.png	3	response_S.png	4	Word 6 of 6	1	Image 1 of 3	1	very_global.png	7	very_specific.png	6	less_global.png	9	less_specific.png	8	reveal.png	5	0	0	0	0
1	practiceBlock	practice	1	1	0	Picture3.jpg	+	1	Picture1.jpg	1	mask3.jpg	3	mask5.jpg	5	mask2.jpg	2	mask4.jpg	4	mask1.jpg	1	0	0	0	0	0	0	0	0	0	0	0	0	0	0	0	0	0	0	0	0	0	0	0	0
1	practiceBlock	centre_mouse	2	5432	reveal	Picture3.jpg	N_1.png	1	N_2.png	2	N_3.png	3	N_4.png	4	Y_1.png	1	Y_2.png	2	Y_3.png	3	Y_4.png	4	response_G.png	3	response_S.png	4	Word 0 of 6	1	Image 2 of 3	1	very_global.png	7	very_specific.png	6	less_global.png	9	less_specific.png	8	reveal.png	5	0	0	0	0
1	practiceBlock	practice_trial	3	3968	yes_4	Picture1.jpg	N_1.png	1	N_2.png	2	N_3.png	3	N_4.png	4	Y_1.png	1	Y_2.png	2	Y_3.png	3	Y_4.png	4	response_G.png	3	response_S.png	4	Word 1 of 6	1	Image 2 of 3	1	very_global.png	7	very_specific.png	6	less_global.png	9	less_specific.png	8	reveal.png	5	color	6	0	0
1	practiceBlock	centre_mouse	4	1053	reveal	Picture1.jpg	N_1.png	1	N_2.png	2	N_3.png	3	N_4.png	4	Y_1.png	1	Y_2.png	2	Y_3.png	3	Y_4.png	4	response_G.png	3	response_S.png	4	Word 1 of 6	1	Image 2 of 3	1	very_global.png	7	very_specific.png	6	less_global.png	9	less_specific.png	8	reveal.png	5	0	0	0	0
1	practiceBlock	practice_trial	5	2323	no_3	Picture1.jpg	N_1.png	1	N_2.png	2	N_3.png	3	N_4.png	4	Y_1.png	1	Y_2.png	2	Y_3.png	3	Y_4.png	4	response_G.png	3	response_S.png	4	Word 2 of 6	1	Image 2 of 3	1	very_global.png	7	very_specific.png	6	less_global.png	9	less_specific.png	8	reveal.png	5	outline	5	0	0
1	practiceBlock	centre_mouse	6	1019	reveal	Picture1.jpg	N_1.png	1	N_2.png	2	N_3.png	3	N_4.png	4	Y_1.png	1	Y_2.png	2	Y_3.png	3	Y_4.png	4	response_G.png	3	response_S.png	4	Word 2 of 6	1	Image 2 of 3	1	very_global.png	7	very_specific.png	6	less_global.png	9	less_specific.png	8	reveal.png	5	0	0	0	0
1	practiceBlock	practice_trial	7	2500	yes_2	Picture1.jpg	N_1.png	1	N_2.png	2	N_3.png	3	N_4.png	4	Y_1.png	1	Y_2.png	2	Y_3.png	3	Y_4.png	4	response_G.png	3	response_S.png	4	Word 3 of 6	1	Image 2 of 3	1	very_global.png	7	very_specific.png	6	less_global.png	9	less_specific.png	8	reveal.png	5	love	2	0	0
1	practiceBlock	centre_mouse	8	891	reveal	Picture1.jpg	N_1.png	1	N_2.png	2	N_3.png	3	N_4.png	4	Y_1.png	1	Y_2.png	2	Y_3.png	3	Y_4.png	4	response_G.png	3	response_S.png	4	Word 3 of 6	1	Image 2 of 3	1	very_global.png	7	very_specific.png	6	less_global.png	9	less_specific.png	8	reveal.png	5	0	0	0	0
1	practiceBlock	practice_trial	9	3062	no_2	Picture1.jpg	N_1.png	1	N_2.png	2	N_3.png	3	N_4.png	4	Y_1.png	1	Y_2.png	2	Y_3.png	3	Y_4.png	4	response_G.png	3	response_S.png	4	Word 4 of 6	1	Image 2 of 3	1	very_global.png	7	very_specific.png	6	less_global.png	9	less_specific.png	8	reveal.png	5	black	4	0	0
1	practiceBlock	centre_mouse	10	787	reveal	Picture1.jpg	N_1.png	1	N_2.png	2	N_3.png	3	N_4.png	4	Y_1.png	1	Y_2.png	2	Y_3.png	3	Y_4.png	4	response_G.png	3	response_S.png	4	Word 4 of 6	1	Image 2 of 3	1	very_global.png	7	very_specific.png	6	less_global.png	9	less_specific.png	8	reveal.png	5	0	0	0	0
1	practiceBlock	practice_trial	11	1521	yes_4	Picture1.jpg	N_1.png	1	N_2.png	2	N_3.png	3	N_4.png	4	Y_1.png	1	Y_2.png	2	Y_3.png	3	Y_4.png	4	response_G.png	3	response_S.png	4	Word 5 of 6	1	Image 2 of 3	1	very_global.png	7	very_specific.png	6	less_global.png	9	less_specific.png	8	reveal.png	5	red	3	0	0
1	practiceBlock	centre_mouse	12	728	reveal	Picture1.jpg	N_1.png	1	N_2.png	2	N_3.png	3	N_4.png	4	Y_1.png	1	Y_2.png	2	Y_3.png	3	Y_4.png	4	response_G.png	3	response_S.png	4	Word 5 of 6	1	Image 2 of 3	1	very_global.png	7	very_specific.png	6	less_global.png	9	less_specific.png	8	reveal.png	5	0	0	0	0
1	practiceBlock	practice_trial	13	3197	yes_2	Picture1.jpg	N_1.png	1	N_2.png	2	N_3.png	3	N_4.png	4	Y_1.png	1	Y_2.png	2	Y_3.png	3	Y_4.png	4	response_G.png	3	response_S.png	4	Word 6 of 6	1	Image 2 of 3	1	very_global.png	7	very_specific.png	6	less_global.png	9	less_specific.png	8	reveal.png	5	heart	1	0	0
1	practiceBlock	centre_mouse	14	764	reveal	Picture1.jpg	N_1.png	1	N_2.png	2	N_3.png	3	N_4.png	4	Y_1.png	1	Y_2.png	2	Y_3.png	3	Y_4.png	4	response_G.png	3	response_S.png	4	Word 6 of 6	1	Image 2 of 3	1	very_global.png	7	very_specific.png	6	less_global.png	9	less_specific.png	8	reveal.png	5	0	0	0	0
1	practiceBlock	practice	1	1	0	Picture1.jpg	+	1	Picture2.jpg	2	mask1.jpg	1	mask4.jpg	4	mask4.jpg	4	mask3.jpg	3	mask2.jpg	2	0	0	0	0	0	0	0	0	0	0	0	0	0	0	0	0	0	0	0	0	0	0	0	0
1	practiceBlock	centre_mouse	2	3957	reveal	Picture1.jpg	N_1.png	1	N_2.png	2	N_3.png	3	N_4.png	4	Y_1.png	1	Y_2.png	2	Y_3.png	3	Y_4.png	4	response_G.png	3	response_S.png	4	Word 0 of 6	1	Image 3 of 3	1	very_global.png	7	very_specific.png	6	less_global.png	9	less_specific.png	8	reveal.png	5	0	0	0	0
1	practiceBlock	practice_trial	3	2145	yes_4	Picture2.jpg	N_1.png	1	N_2.png	2	N_3.png	3	N_4.png	4	Y_1.png	1	Y_2.png	2	Y_3.png	3	Y_4.png	4	response_G.png	3	response_S.png	4	Word 1 of 6	1	Image 3 of 3	1	very_global.png	7	very_specific.png	6	less_global.png	9	less_specific.png	8	reveal.png	5	face	1	0	0
1	practiceBlock	centre_mouse	4	820	reveal	Picture2.jpg	N_1.png	1	N_2.png	2	N_3.png	3	N_4.png	4	Y_1.png	1	Y_2.png	2	Y_3.png	3	Y_4.png	4	response_G.png	3	response_S.png	4	Word 1 of 6	1	Image 3 of 3	1	very_global.png	7	very_specific.png	6	less_global.png	9	less_specific.png	8	reveal.png	5	0	0	0	0
1	practiceBlock	practice_trial	5	535	yes_4	Picture2.jpg	N_1.png	1	N_2.png	2	N_3.png	3	N_4.png	4	Y_1.png	1	Y_2.png	2	Y_3.png	3	Y_4.png	4	response_G.png	3	response_S.png	4	Word 2 of 6	1	Image 3 of 3	1	very_global.png	7	very_specific.png	6	less_global.png	9	less_specific.png	8	reveal.png	5	smile	4	0	0
1	practiceBlock	centre_mouse	6	655	reveal	Picture2.jpg	N_1.png	1	N_2.png	2	N_3.png	3	N_4.png	4	Y_1.png	1	Y_2.png	2	Y_3.png	3	Y_4.png	4	response_G.png	3	response_S.png	4	Word 2 of 6	1	Image 3 of 3	1	very_global.png	7	very_specific.png	6	less_global.png	9	less_specific.png	8	reveal.png	5	0	0	0	0
1	practiceBlock	practice_trial	7	567	yes_4	Picture2.jpg	N_1.png	1	N_2.png	2	N_3.png	3	N_4.png	4	Y_1.png	1	Y_2.png	2	Y_3.png	3	Y_4.png	4	response_G.png	3	response_S.png	4	Word 3 of 6	1	Image 3 of 3	1	very_global.png	7	very_specific.png	6	less_global.png	9	less_specific.png	8	reveal.png	5	yellow	2	0	0
1	practiceBlock	centre_mouse	8	695	reveal	Picture2.jpg	N_1.png	1	N_2.png	2	N_3.png	3	N_4.png	4	Y_1.png	1	Y_2.png	2	Y_3.png	3	Y_4.png	4	response_G.png	3	response_S.png	4	Word 3 of 6	1	Image 3 of 3	1	very_global.png	7	very_specific.png	6	less_global.png	9	less_specific.png	8	reveal.png	5	0	0	0	0
1	practiceBlock	practice_trial	9	468	yes_4	Picture2.jpg	N_1.png	1	N_2.png	2	N_3.png	3	N_4.png	4	Y_1.png	1	Y_2.png	2	Y_3.png	3	Y_4.png	4	response_G.png	3	response_S.png	4	Word 4 of 6	1	Image 3 of 3	1	very_global.png	7	very_specific.png	6	less_global.png	9	less_specific.png	8	reveal.png	5	happy	5	0	0
1	practiceBlock	centre_mouse	10	703	reveal	Picture2.jpg	N_1.png	1	N_2.png	2	N_3.png	3	N_4.png	4	Y_1.png	1	Y_2.png	2	Y_3.png	3	Y_4.png	4	response_G.png	3	response_S.png	4	Word 4 of 6	1	Image 3 of 3	1	very_global.png	7	very_specific.png	6	less_global.png	9	less_specific.png	8	reveal.png	5	0	0	0	0
1	practiceBlock	practice_trial	11	655	yes_4	Picture2.jpg	N_1.png	1	N_2.png	2	N_3.png	3	N_4.png	4	Y_1.png	1	Y_2.png	2	Y_3.png	3	Y_4.png	4	response_G.png	3	response_S.png	4	Word 5 of 6	1	Image 3 of 3	1	very_global.png	7	very_specific.png	6	less_global.png	9	less_specific.png	8	reveal.png	5	emoji	6	0	0
1	practiceBlock	centre_mouse	12	675	reveal	Picture2.jpg	N_1.png	1	N_2.png	2	N_3.png	3	N_4.png	4	Y_1.png	1	Y_2.png	2	Y_3.png	3	Y_4.png	4	response_G.png	3	response_S.png	4	Word 5 of 6	1	Image 3 of 3	1	very_global.png	7	very_specific.png	6	less_global.png	9	less_specific.png	8	reveal.png	5	0	0	0	0
1	practiceBlock	practice_trial	13	471	yes_4	Picture2.jpg	N_1.png	1	N_2.png	2	N_3.png	3	N_4.png	4	Y_1.png	1	Y_2.png	2	Y_3.png	3	Y_4.png	4	response_G.png	3	response_S.png	4	Word 6 of 6	1	Image 3 of 3	1	very_global.png	7	very_specific.png	6	less_global.png	9	less_specific.png	8	reveal.png	5	eyes	3	0	0
1	practiceBlock	centre_mouse	14	829	reveal	Picture2.jpg	N_1.png	1	N_2.png	2	N_3.png	3	N_4.png	4	Y_1.png	1	Y_2.png	2	Y_3.png	3	Y_4.png	4	response_G.png	3	response_S.png	4	Word 6 of 6	1	Image 3 of 3	1	very_global.png	7	very_specific.png	6	less_global.png	9	less_specific.png	8	reveal.png	5	0	0	0	0
1	reset	reset	1	200	0	Picture2.jpg	0	0	0	0	0	0	0	0	0	0	0	0	0	0	0	0	0	0	0	0	0	0	0	0	0	0	0	0	0	0	0	0	0	0	0	0	0	0
1	reminder_start	reminder_start	1	1712	reveal	Picture2.jpg	Click the center square to proceed to the REAL trials	1	reveal.png	5	0	0	0	0	0	0	0	0	0	0	0	0	0	0	0	0	0	0	0	0	0	0	0	0	0	0	0	0	0	0	0	0	0	0
1	testBlock	test	1	1	0	im0000041.jpg	+	1	im0000332.jpg	32	mask4.jpg	4	mask2.jpg	2	mask5.jpg	5	mask1.jpg	1	mask5.jpg	5	0	0	0	0	0	0	0	0	0	0	0	0	0	0	0	0	0	0	0	0	0	0	0	0
1	testBlock	centre_mouse	2	8008	reveal	im0000041.jpg	N_1.png	1	N_2.png	2	N_3.png	3	N_4.png	4	Y_1.png	1	Y_2.png	2	Y_3.png	3	Y_4.png	4	response_G.png	3	response_S.png	4	Word 0 of 6	1	Image 1 of 40	1	very_global.png	7	very_specific.png	6	less_global.png	9	less_specific.png	8	reveal.png	5	0	0	0	0
1	testBlock	present_trial	3	561	yes_4	im0000332.jpg	N_1.png	1	N_2.png	2	N_3.png	3	N_4.png	4	Y_1.png	1	Y_2.png	2	Y_3.png	3	Y_4.png	4	response_G.png	3	response_S.png	4	Word 1 of 6	1	Image 1 of 40	1	very_global.png	7	very_specific.png	6	less_global.png	9	less_specific.png	8	reveal.png	5	people	5	0	0
1	testBlock	centre_mouse	4	606	reveal	im0000332.jpg	N_1.png	1	N_2.png	2	N_3.png	3	N_4.png	4	Y_1.png	1	Y_2.png	2	Y_3.png	3	Y_4.png	4	response_G.png	3	response_S.png	4	Word 1 of 6	1	Image 1 of 40	1	very_global.png	7	very_specific.png	6	less_global.png	9	less_specific.png	8	reveal.png	5	0	0	0	0
1	testBlock	present_trial	5	584	yes_4	im0000332.jpg	N_1.png	1	N_2.png	2	N_3.png	3	N_4.png	4	Y_1.png	1	Y_2.png	2	Y_3.png	3	Y_4.png	4	response_G.png	3	response_S.png	4	Word 2 of 6	1	Image 1 of 40	1	very_global.png	7	very_specific.png	6	less_global.png	9	less_specific.png	8	reveal.png	5	street	4	0	0
1	testBlock	centre_mouse	6	515	reveal	im0000332.jpg	N_1.png	1	N_2.png	2	N_3.png	3	N_4.png	4	Y_1.png	1	Y_2.png	2	Y_3.png	3	Y_4.png	4	response_G.png	3	response_S.png	4	Word 2 of 6	1	Image 1 of 40	1	very_global.png	7	very_specific.png	6	less_global.png	9	less_specific.png	8	reveal.png	5	0	0	0	0
1	testBlock	present_trial	7	748	yes_4	im0000332.jpg	N_1.png	1	N_2.png	2	N_3.png	3	N_4.png	4	Y_1.png	1	Y_2.png	2	Y_3.png	3	Y_4.png	4	response_G.png	3	response_S.png	4	Word 3 of 6	1	Image 1 of 40	1	very_global.png	7	very_specific.png	6	less_global.png	9	less_specific.png	8	reveal.png	5	indoor	3	0	0
1	testBlock	centre_mouse	8	637	reveal	im0000332.jpg	N_1.png	1	N_2.png	2	N_3.png	3	N_4.png	4	Y_1.png	1	Y_2.png	2	Y_3.png	3	Y_4.png	4	response_G.png	3	response_S.png	4	Word 3 of 6	1	Image 1 of 40	1	very_global.png	7	very_specific.png	6	less_global.png	9	less_specific.png	8	reveal.png	5	0	0	0	0
1	testBlock	present_trial	9	663	yes_4	im0000332.jpg	N_1.png	1	N_2.png	2	N_3.png	3	N_4.png	4	Y_1.png	1	Y_2.png	2	Y_3.png	3	Y_4.png	4	response_G.png	3	response_S.png	4	Word 4 of 6	1	Image 1 of 40	1	very_global.png	7	very_specific.png	6	less_global.png	9	less_specific.png	8	reveal.png	5	many	6	0	0
1	testBlock	centre_mouse	10	593	reveal	im0000332.jpg	N_1.png	1	N_2.png	2	N_3.png	3	N_4.png	4	Y_1.png	1	Y_2.png	2	Y_3.png	3	Y_4.png	4	response_G.png	3	response_S.png	4	Word 4 of 6	1	Image 1 of 40	1	very_global.png	7	very_specific.png	6	less_global.png	9	less_specific.png	8	reveal.png	5	0	0	0	0
1	testBlock	present_trial	11	490	yes_4	im0000332.jpg	N_1.png	1	N_2.png	2	N_3.png	3	N_4.png	4	Y_1.png	1	Y_2.png	2	Y_3.png	3	Y_4.png	4	response_G.png	3	response_S.png	4	Word 5 of 6	1	Image 1 of 40	1	very_global.png	7	very_specific.png	6	less_global.png	9	less_specific.png	8	reveal.png	5	mall	1	0	0
1	testBlock	centre_mouse	12	684	reveal	im0000332.jpg	N_1.png	1	N_2.png	2	N_3.png	3	N_4.png	4	Y_1.png	1	Y_2.png	2	Y_3.png	3	Y_4.png	4	response_G.png	3	response_S.png	4	Word 5 of 6	1	Image 1 of 40	1	very_global.png	7	very_specific.png	6	less_global.png	9	less_specific.png	8	reveal.png	5	0	0	0	0
1	testBlock	present_trial	13	629	yes_4	im0000332.jpg	N_1.png	1	N_2.png	2	N_3.png	3	N_4.png	4	Y_1.png	1	Y_2.png	2	Y_3.png	3	Y_4.png	4	response_G.png	3	response_S.png	4	Word 6 of 6	1	Image 1 of 40	1	very_global.png	7	very_specific.png	6	less_global.png	9	less_specific.png	8	reveal.png	5	shop	2	0	0
1	testBlock	centre_mouse	14	674	reveal	im0000332.jpg	N_1.png	1	N_2.png	2	N_3.png	3	N_4.png	4	Y_1.png	1	Y_2.png	2	Y_3.png	3	Y_4.png	4	response_G.png	3	response_S.png	4	Word 6 of 6	1	Image 1 of 40	1	very_global.png	7	very_specific.png	6	less_global.png	9	less_specific.png	8	reveal.png	5	0	0	0	0
1	testBlock	test	1	1	0	im0000332.jpg	+	1	im0000126.jpg	12	mask5.jpg	5	mask1.jpg	1	mask3.jpg	3	mask5.jpg	5	mask3.jpg	3	0	0	0	0	0	0	0	0	0	0	0	0	0	0	0	0	0	0	0	0	0	0	0	0
1	testBlock	centre_mouse	2	715	reveal	im0000332.jpg	N_1.png	1	N_2.png	2	N_3.png	3	N_4.png	4	Y_1.png	1	Y_2.png	2	Y_3.png	3	Y_4.png	4	response_G.png	3	response_S.png	4	Word 0 of 6	1	Image 2 of 40	1	very_global.png	7	very_specific.png	6	less_global.png	9	less_specific.png	8	reveal.png	5	0	0	0	0
1	testBlock	present_trial	3	438	yes_4	im0000126.jpg	N_1.png	1	N_2.png	2	N_3.png	3	N_4.png	4	Y_1.png	1	Y_2.png	2	Y_3.png	3	Y_4.png	4	response_G.png	3	response_S.png	4	Word 1 of 6	1	Image 2 of 40	1	very_global.png	7	very_specific.png	6	less_global.png	9	less_specific.png	8	reveal.png	5	girl	6	0	0
1	testBlock	centre_mouse	4	554	reveal	im0000126.jpg	N_1.png	1	N_2.png	2	N_3.png	3	N_4.png	4	Y_1.png	1	Y_2.png	2	Y_3.png	3	Y_4.png	4	response_G.png	3	response_S.png	4	Word 1 of 6	1	Image 2 of 40	1	very_global.png	7	very_specific.png	6	less_global.png	9	less_specific.png	8	reveal.png	5	0	0	0	0
1	testBlock	present_trial	5	640	yes_4	im0000126.jpg	N_1.png	1	N_2.png	2	N_3.png	3	N_4.png	4	Y_1.png	1	Y_2.png	2	Y_3.png	3	Y_4.png	4	response_G.png	3	response_S.png	4	Word 2 of 6	1	Image 2 of 40	1	very_global.png	7	very_specific.png	6	less_global.png	9	less_specific.png	8	reveal.png	5	study	1	0	0
1	testBlock	centre_mouse	6	504	reveal	im0000126.jpg	N_1.png	1	N_2.png	2	N_3.png	3	N_4.png	4	Y_1.png	1	Y_2.png	2	Y_3.png	3	Y_4.png	4	response_G.png	3	response_S.png	4	Word 2 of 6	1	Image 2 of 40	1	very_global.png	7	very_specific.png	6	less_global.png	9	less_specific.png	8	reveal.png	5	0	0	0	0
1	testBlock	present_trial	7	511	yes_4	im0000126.jpg	N_1.png	1	N_2.png	2	N_3.png	3	N_4.png	4	Y_1.png	1	Y_2.png	2	Y_3.png	3	Y_4.png	4	response_G.png	3	response_S.png	4	Word 3 of 6	1	Image 2 of 40	1	very_global.png	7	very_specific.png	6	less_global.png	9	less_specific.png	8	reveal.png	5	pen	2	0	0
1	testBlock	centre_mouse	8	630	reveal	im0000126.jpg	N_1.png	1	N_2.png	2	N_3.png	3	N_4.png	4	Y_1.png	1	Y_2.png	2	Y_3.png	3	Y_4.png	4	response_G.png	3	response_S.png	4	Word 3 of 6	1	Image 2 of 40	1	very_global.png	7	very_specific.png	6	less_global.png	9	less_specific.png	8	reveal.png	5	0	0	0	0
1	testBlock	present_trial	9	518	yes_4	im0000126.jpg	N_1.png	1	N_2.png	2	N_3.png	3	N_4.png	4	Y_1.png	1	Y_2.png	2	Y_3.png	3	Y_4.png	4	response_G.png	3	response_S.png	4	Word 4 of 6	1	Image 2 of 40	1	very_global.png	7	very_specific.png	6	less_global.png	9	less_specific.png	8	reveal.png	5	desk	3	0	0
1	testBlock	centre_mouse	10	638	reveal	im0000126.jpg	N_1.png	1	N_2.png	2	N_3.png	3	N_4.png	4	Y_1.png	1	Y_2.png	2	Y_3.png	3	Y_4.png	4	response_G.png	3	response_S.png	4	Word 4 of 6	1	Image 2 of 40	1	very_global.png	7	very_specific.png	6	less_global.png	9	less_specific.png	8	reveal.png	5	0	0	0	0
1	testBlock	present_trial	11	461	yes_4	im0000126.jpg	N_1.png	1	N_2.png	2	N_3.png	3	N_4.png	4	Y_1.png	1	Y_2.png	2	Y_3.png	3	Y_4.png	4	response_G.png	3	response_S.png	4	Word 5 of 6	1	Image 2 of 40	1	very_global.png	7	very_specific.png	6	less_global.png	9	less_specific.png	8	reveal.png	5	paper	5	0	0
1	testBlock	centre_mouse	12	719	reveal	im0000126.jpg	N_1.png	1	N_2.png	2	N_3.png	3	N_4.png	4	Y_1.png	1	Y_2.png	2	Y_3.png	3	Y_4.png	4	response_G.png	3	response_S.png	4	Word 5 of 6	1	Image 2 of 40	1	very_global.png	7	very_specific.png	6	less_global.png	9	less_specific.png	8	reveal.png	5	0	0	0	0
1	testBlock	present_trial	13	550	yes_4	im0000126.jpg	N_1.png	1	N_2.png	2	N_3.png	3	N_4.png	4	Y_1.png	1	Y_2.png	2	Y_3.png	3	Y_4.png	4	response_G.png	3	response_S.png	4	Word 6 of 6	1	Image 2 of 40	1	very_global.png	7	very_specific.png	6	less_global.png	9	less_specific.png	8	reveal.png	5	write	4	0	0
1	testBlock	centre_mouse	14	530	reveal	im0000126.jpg	N_1.png	1	N_2.png	2	N_3.png	3	N_4.png	4	Y_1.png	1	Y_2.png	2	Y_3.png	3	Y_4.png	4	response_G.png	3	response_S.png	4	Word 6 of 6	1	Image 2 of 40	1	very_global.png	7	very_specific.png	6	less_global.png	9	less_specific.png	8	reveal.png	5	0	0	0	0
1	testBlock	test	1	1	0	im0000126.jpg	+	1	im0000385.jpg	37	mask3.jpg	3	mask3.jpg	3	mask1.jpg	1	mask3.jpg	3	mask1.jpg	1	0	0	0	0	0	0	0	0	0	0	0	0	0	0	0	0	0	0	0	0	0	0	0	0
1	testBlock	centre_mouse	2	910	reveal	im0000126.jpg	N_1.png	1	N_2.png	2	N_3.png	3	N_4.png	4	Y_1.png	1	Y_2.png	2	Y_3.png	3	Y_4.png	4	response_G.png	3	response_S.png	4	Word 0 of 6	1	Image 3 of 40	1	very_global.png	7	very_specific.png	6	less_global.png	9	less_specific.png	8	reveal.png	5	0	0	0	0
1	testBlock	present_trial	3	677	yes_3	im0000385.jpg	N_1.png	1	N_2.png	2	N_3.png	3	N_4.png	4	Y_1.png	1	Y_2.png	2	Y_3.png	3	Y_4.png	4	response_G.png	3	response_S.png	4	Word 1 of 6	1	Image 3 of 40	1	very_global.png	7	very_specific.png	6	less_global.png	9	less_specific.png	8	reveal.png	5	coffee	1	0	0
1	testBlock	centre_mouse	4	713	reveal	im0000385.jpg	N_1.png	1	N_2.png	2	N_3.png	3	N_4.png	4	Y_1.png	1	Y_2.png	2	Y_3.png	3	Y_4.png	4	response_G.png	3	response_S.png	4	Word 1 of 6	1	Image 3 of 40	1	very_global.png	7	very_specific.png	6	less_global.png	9	less_specific.png	8	reveal.png	5	0	0	0	0
1	testBlock	present_trial	5	510	yes_3	im0000385.jpg	N_1.png	1	N_2.png	2	N_3.png	3	N_4.png	4	Y_1.png	1	Y_2.png	2	Y_3.png	3	Y_4.png	4	response_G.png	3	response_S.png	4	Word 2 of 6	1	Image 3 of 40	1	very_global.png	7	very_specific.png	6	less_global.png	9	less_specific.png	8	reveal.png	5	breakfast	2	0	0
1	testBlock	centre_mouse	6	548	reveal	im0000385.jpg	N_1.png	1	N_2.png	2	N_3.png	3	N_4.png	4	Y_1.png	1	Y_2.png	2	Y_3.png	3	Y_4.png	4	response_G.png	3	response_S.png	4	Word 2 of 6	1	Image 3 of 40	1	very_global.png	7	very_specific.png	6	less_global.png	9	less_specific.png	8	reveal.png	5	0	0	0	0
1	testBlock	present_trial	7	405	yes_3	im0000385.jpg	N_1.png	1	N_2.png	2	N_3.png	3	N_4.png	4	Y_1.png	1	Y_2.png	2	Y_3.png	3	Y_4.png	4	response_G.png	3	response_S.png	4	Word 3 of 6	1	Image 3 of 40	1	very_global.png	7	very_specific.png	6	less_global.png	9	less_specific.png	8	reveal.png	5	cup	3	0	0
1	testBlock	centre_mouse	8	528	reveal	im0000385.jpg	N_1.png	1	N_2.png	2	N_3.png	3	N_4.png	4	Y_1.png	1	Y_2.png	2	Y_3.png	3	Y_4.png	4	response_G.png	3	response_S.png	4	Word 3 of 6	1	Image 3 of 40	1	very_global.png	7	very_specific.png	6	less_global.png	9	less_specific.png	8	reveal.png	5	0	0	0	0
1	testBlock	present_trial	9	352	yes_3	im0000385.jpg	N_1.png	1	N_2.png	2	N_3.png	3	N_4.png	4	Y_1.png	1	Y_2.png	2	Y_3.png	3	Y_4.png	4	response_G.png	3	response_S.png	4	Word 4 of 6	1	Image 3 of 40	1	very_global.png	7	very_specific.png	6	less_global.png	9	less_specific.png	8	reveal.png	5	hot	5	0	0
1	testBlock	centre_mouse	10	786	reveal	im0000385.jpg	N_1.png	1	N_2.png	2	N_3.png	3	N_4.png	4	Y_1.png	1	Y_2.png	2	Y_3.png	3	Y_4.png	4	response_G.png	3	response_S.png	4	Word 4 of 6	1	Image 3 of 40	1	very_global.png	7	very_specific.png	6	less_global.png	9	less_specific.png	8	reveal.png	5	0	0	0	0
1	testBlock	present_trial	11	376	yes_3	im0000385.jpg	N_1.png	1	N_2.png	2	N_3.png	3	N_4.png	4	Y_1.png	1	Y_2.png	2	Y_3.png	3	Y_4.png	4	response_G.png	3	response_S.png	4	Word 5 of 6	1	Image 3 of 40	1	very_global.png	7	very_specific.png	6	less_global.png	9	less_specific.png	8	reveal.png	5	food	4	0	0
1	testBlock	centre_mouse	12	605	reveal	im0000385.jpg	N_1.png	1	N_2.png	2	N_3.png	3	N_4.png	4	Y_1.png	1	Y_2.png	2	Y_3.png	3	Y_4.png	4	response_G.png	3	response_S.png	4	Word 5 of 6	1	Image 3 of 40	1	very_global.png	7	very_specific.png	6	less_global.png	9	less_specific.png	8	reveal.png	5	0	0	0	0
1	testBlock	present_trial	13	388	yes_3	im0000385.jpg	N_1.png	1	N_2.png	2	N_3.png	3	N_4.png	4	Y_1.png	1	Y_2.png	2	Y_3.png	3	Y_4.png	4	response_G.png	3	response_S.png	4	Word 6 of 6	1	Image 3 of 40	1	very_global.png	7	very_specific.png	6	less_global.png	9	less_specific.png	8	reveal.png	5	plate	6	0	0
1	testBlock	centre_mouse	14	535	reveal	im0000385.jpg	N_1.png	1	N_2.png	2	N_3.png	3	N_4.png	4	Y_1.png	1	Y_2.png	2	Y_3.png	3	Y_4.png	4	response_G.png	3	response_S.png	4	Word 6 of 6	1	Image 3 of 40	1	very_global.png	7	very_specific.png	6	less_global.png	9	less_specific.png	8	reveal.png	5	0	0	0	0
1	testBlock	test	1	1	0	im0000385.jpg	+	1	im0000245.jpg	20	mask5.jpg	5	mask5.jpg	5	mask5.jpg	5	mask1.jpg	1	mask5.jpg	5	0	0	0	0	0	0	0	0	0	0	0	0	0	0	0	0	0	0	0	0	0	0	0	0
1	testBlock	centre_mouse	2	3875	Ctrl+'Q'	im0000385.jpg	N_1.png	1	N_2.png	2	N_3.png	3	N_4.png	4	Y_1.png	1	Y_2.png	2	Y_3.png	3	Y_4.png	4	response_G.png	3	response_S.png	4	Word 0 of 6	1	Image 4 of 40	1	very_global.png	7	very_specific.png	6	less_global.png	9	less_specific.png	8	reveal.png	5	0	0	0	0
1	reminder_practice	reminder_practice	1	46	reveal	placeholder_image	Click the center square to proceed to the PRACTICE trials	1	reveal.png	5	0	0	0	0	0	0	0	0	0	0	0	0	0	0	0	0	0	0	0	0	0	0	0	0	0	0	0	0	0	0	0	0	0	0
1	practiceBlock	practice	1	267	0	Picture1.jpg	+	1	Picture3.jpg	3	0	0	0	0	0	0	0	0	0	0	0	0	0	0	0	0	0	0	0	0	0	0	0	0	0	0	0	0	0	0	0	0	0	0
1	practiceBlock	centre_mouse	2	43	reveal	Picture1.jpg	N_1.png	1	N_2.png	2	N_3.png	3	N_4.png	4	Y_1.png	1	Y_2.png	2	Y_3.png	3	Y_4.png	4	response_G.png	3	response_S.png	4	Word 0 of 6	1	Image 1 of 3	1	very_global.png	7	very_specific.png	6	less_global.png	9	less_specific.png	8	reveal.png	5	0	0	0	0
1	practiceBlock	practice_trial	3	47	yes_4	Picture3.jpg	N_1.png	1	N_2.png	2	N_3.png	3	N_4.png	4	Y_1.png	1	Y_2.png	2	Y_3.png	3	Y_4.png	4	response_G.png	3	response_S.png	4	Word 1 of 6	1	Image 1 of 3	1	very_global.png	7	very_specific.png	6	less_global.png	9	less_specific.png	8	reveal.png	5	blue	5	0	0
1	practiceBlock	centre_mouse	4	31	reveal	Picture3.jpg	N_1.png	1	N_2.png	2	N_3.png	3	N_4.png	4	Y_1.png	1	Y_2.png	2	Y_3.png	3	Y_4.png	4	response_G.png	3	response_S.png	4	Word 1 of 6	1	Image 1 of 3	1	very_global.png	7	very_specific.png	6	less_global.png	9	less_specific.png	8	reveal.png	5	0	0	0	0
1	practiceBlock	practice_trial	5	35	yes_1	Picture3.jpg	N_1.png	1	N_2.png	2	N_3.png	3	N_4.png	4	Y_1.png	1	Y_2.png	2	Y_3.png	3	Y_4.png	4	response_G.png	3	response_S.png	4	Word 2 of 6	1	Image 1 of 3	1	very_global.png	7	very_specific.png	6	less_global.png	9	less_specific.png	8	reveal.png	5	landscape	4	0	0
1	practiceBlock	centre_mouse	6	61	reveal	Picture3.jpg	N_1.png	1	N_2.png	2	N_3.png	3	N_4.png	4	Y_1.png	1	Y_2.png	2	Y_3.png	3	Y_4.png	4	response_G.png	3	response_S.png	4	Word 2 of 6	1	Image 1 of 3	1	very_global.png	7	very_specific.png	6	less_global.png	9	less_specific.png	8	reveal.png	5	0	0	0	0
1	practiceBlock	practice_trial	7	57	yes_1	Picture3.jpg	N_1.png	1	N_2.png	2	N_3.png	3	N_4.png	4	Y_1.png	1	Y_2.png	2	Y_3.png	3	Y_4.png	4	response_G.png	3	response_S.png	4	Word 3 of 6	1	Image 1 of 3	1	very_global.png	7	very_specific.png	6	less_global.png	9	less_specific.png	8	reveal.png	5	mountain	1	0	0
1	practiceBlock	centre_mouse	8	60	reveal	Picture3.jpg	N_1.png	1	N_2.png	2	N_3.png	3	N_4.png	4	Y_1.png	1	Y_2.png	2	Y_3.png	3	Y_4.png	4	response_G.png	3	response_S.png	4	Word 3 of 6	1	Image 1 of 3	1	very_global.png	7	very_specific.png	6	less_global.png	9	less_specific.png	8	reveal.png	5	0	0	0	0
1	practiceBlock	practice_trial	9	42	no_2	Picture3.jpg	N_1.png	1	N_2.png	2	N_3.png	3	N_4.png	4	Y_1.png	1	Y_2.png	2	Y_3.png	3	Y_4.png	4	response_G.png	3	response_S.png	4	Word 4 of 6	1	Image 1 of 3	1	very_global.png	7	very_specific.png	6	less_global.png	9	less_specific.png	8	reveal.png	5	sun	2	0	0
1	practiceBlock	centre_mouse	10	57	reveal	Picture3.jpg	N_1.png	1	N_2.png	2	N_3.png	3	N_4.png	4	Y_1.png	1	Y_2.png	2	Y_3.png	3	Y_4.png	4	response_G.png	3	response_S.png	4	Word 4 of 6	1	Image 1 of 3	1	very_global.png	7	very_specific.png	6	less_global.png	9	less_specific.png	8	reveal.png	5	0	0	0	0
1	practiceBlock	practice_trial	11	34	yes_1	Picture3.jpg	N_1.png	1	N_2.png	2	N_3.png	3	N_4.png	4	Y_1.png	1	Y_2.png	2	Y_3.png	3	Y_4.png	4	response_G.png	3	response_S.png	4	Word 5 of 6	1	Image 1 of 3	1	very_global.png	7	very_specific.png	6	less_global.png	9	less_specific.png	8	reveal.png	5	sky	6	0	0
1	practiceBlock	centre_mouse	12	39	reveal	Picture3.jpg	N_1.png	1	N_2.png	2	N_3.png	3	N_4.png	4	Y_1.png	1	Y_2.png	2	Y_3.png	3	Y_4.png	4	response_G.png	3	response_S.png	4	Word 5 of 6	1	Image 1 of 3	1	very_global.png	7	very_specific.png	6	less_global.png	9	less_specific.png	8	reveal.png	5	0	0	0	0
1	practiceBlock	practice_trial	13	51	yes_1	Picture3.jpg	N_1.png	1	N_2.png	2	N_3.png	3	N_4.png	4	Y_1.png	1	Y_2.png	2	Y_3.png	3	Y_4.png	4	response_G.png	3	response_S.png	4	Word 6 of 6	1	Image 1 of 3	1	very_global.png	7	very_specific.png	6	less_global.png	9	less_specific.png	8	reveal.png	5	cloud	3	0	0
1	practiceBlock	centre_mouse	14	53	reveal	Picture3.jpg	N_1.png	1	N_2.png	2	N_3.png	3	N_4.png	4	Y_1.png	1	Y_2.png	2	Y_3.png	3	Y_4.png	4	response_G.png	3	response_S.png	4	Word 6 of 6	1	Image 1 of 3	1	very_global.png	7	very_specific.png	6	less_global.png	9	less_specific.png	8	reveal.png	5	0	0	0	0
1	practiceBlock	practice	1	267	0	Picture3.jpg	+	1	Picture2.jpg	2	0	0	0	0	0	0	0	0	0	0	0	0	0	0	0	0	0	0	0	0	0	0	0	0	0	0	0	0	0	0	0	0	0	0
1	practiceBlock	centre_mouse	2	47	reveal	Picture3.jpg	N_1.png	1	N_2.png	2	N_3.png	3	N_4.png	4	Y_1.png	1	Y_2.png	2	Y_3.png	3	Y_4.png	4	response_G.png	3	response_S.png	4	Word 0 of 6	1	Image 2 of 3	1	very_global.png	7	very_specific.png	6	less_global.png	9	less_specific.png	8	reveal.png	5	0	0	0	0
1	practiceBlock	practice_trial	3	29	yes_1	Picture2.jpg	N_1.png	1	N_2.png	2	N_3.png	3	N_4.png	4	Y_1.png	1	Y_2.png	2	Y_3.png	3	Y_4.png	4	response_G.png	3	response_S.png	4	Word 1 of 6	1	Image 2 of 3	1	very_global.png	7	very_specific.png	6	less_global.png	9	less_specific.png	8	reveal.png	5	face	1	0	0
1	practiceBlock	centre_mouse	4	33	reveal	Picture2.jpg	N_1.png	1	N_2.png	2	N_3.png	3	N_4.png	4	Y_1.png	1	Y_2.png	2	Y_3.png	3	Y_4.png	4	response_G.png	3	response_S.png	4	Word 1 of 6	1	Image 2 of 3	1	very_global.png	7	very_specific.png	6	less_global.png	9	less_specific.png	8	reveal.png	5	0	0	0	0
1	practiceBlock	practice_trial	5	63	yes_3	Picture2.jpg	N_1.png	1	N_2.png	2	N_3.png	3	N_4.png	4	Y_1.png	1	Y_2.png	2	Y_3.png	3	Y_4.png	4	response_G.png	3	response_S.png	4	Word 2 of 6	1	Image 2 of 3	1	very_global.png	7	very_specific.png	6	less_global.png	9	less_specific.png	8	reveal.png	5	yellow	2	0	0
1	practiceBlock	centre_mouse	6	35	reveal	Picture2.jpg	N_1.png	1	N_2.png	2	N_3.png	3	N_4.png	4	Y_1.png	1	Y_2.png	2	Y_3.png	3	Y_4.png	4	response_G.png	3	response_S.png	4	Word 2 of 6	1	Image 2 of 3	1	very_global.png	7	very_specific.png	6	less_global.png	9	less_specific.png	8	reveal.png	5	0	0	0	0
1	practiceBlock	practice_trial	7	29	no_4	Picture2.jpg	N_1.png	1	N_2.png	2	N_3.png	3	N_4.png	4	Y_1.png	1	Y_2.png	2	Y_3.png	3	Y_4.png	4	response_G.png	3	response_S.png	4	Word 3 of 6	1	Image 2 of 3	1	very_global.png	7	very_specific.png	6	less_global.png	9	less_specific.png	8	reveal.png	5	emoji	6	0	0
1	practiceBlock	centre_mouse	8	25	reveal	Picture2.jpg	N_1.png	1	N_2.png	2	N_3.png	3	N_4.png	4	Y_1.png	1	Y_2.png	2	Y_3.png	3	Y_4.png	4	response_G.png	3	response_S.png	4	Word 3 of 6	1	Image 2 of 3	1	very_global.png	7	very_specific.png	6	less_global.png	9	less_specific.png	8	reveal.png	5	0	0	0	0
1	practiceBlock	practice_trial	9	35	yes_1	Picture2.jpg	N_1.png	1	N_2.png	2	N_3.png	3	N_4.png	4	Y_1.png	1	Y_2.png	2	Y_3.png	3	Y_4.png	4	response_G.png	3	response_S.png	4	Word 4 of 6	1	Image 2 of 3	1	very_global.png	7	very_specific.png	6	less_global.png	9	less_specific.png	8	reveal.png	5	smile	4	0	0
1	practiceBlock	centre_mouse	10	57	reveal	Picture2.jpg	N_1.png	1	N_2.png	2	N_3.png	3	N_4.png	4	Y_1.png	1	Y_2.png	2	Y_3.png	3	Y_4.png	4	response_G.png	3	response_S.png	4	Word 4 of 6	1	Image 2 of 3	1	very_global.png	7	very_specific.png	6	less_global.png	9	less_specific.png	8	reveal.png	5	0	0	0	0
1	practiceBlock	practice_trial	11	49	yes_1	Picture2.jpg	N_1.png	1	N_2.png	2	N_3.png	3	N_4.png	4	Y_1.png	1	Y_2.png	2	Y_3.png	3	Y_4.png	4	response_G.png	3	response_S.png	4	Word 5 of 6	1	Image 2 of 3	1	very_global.png	7	very_specific.png	6	less_global.png	9	less_specific.png	8	reveal.png	5	eyes	3	0	0
1	practiceBlock	centre_mouse	12	54	reveal	Picture2.jpg	N_1.png	1	N_2.png	2	N_3.png	3	N_4.png	4	Y_1.png	1	Y_2.png	2	Y_3.png	3	Y_4.png	4	response_G.png	3	response_S.png	4	Word 5 of 6	1	Image 2 of 3	1	very_global.png	7	very_specific.png	6	less_global.png	9	less_specific.png	8	reveal.png	5	0	0	0	0
1	practiceBlock	practice_trial	13	41	yes_4	Picture2.jpg	N_1.png	1	N_2.png	2	N_3.png	3	N_4.png	4	Y_1.png	1	Y_2.png	2	Y_3.png	3	Y_4.png	4	response_G.png	3	response_S.png	4	Word 6 of 6	1	Image 2 of 3	1	very_global.png	7	very_specific.png	6	less_global.png	9	less_specific.png	8	reveal.png	5	happy	5	0	0
1	practiceBlock	centre_mouse	14	62	reveal	Picture2.jpg	N_1.png	1	N_2.png	2	N_3.png	3	N_4.png	4	Y_1.png	1	Y_2.png	2	Y_3.png	3	Y_4.png	4	response_G.png	3	response_S.png	4	Word 6 of 6	1	Image 2 of 3	1	very_global.png	7	very_specific.png	6	less_global.png	9	less_specific.png	8	reveal.png	5	0	0	0	0
1	practiceBlock	practice	1	267	0	Picture2.jpg	+	1	Picture1.jpg	1	0	0	0	0	0	0	0	0	0	0	0	0	0	0	0	0	0	0	0	0	0	0	0	0	0	0	0	0	0	0	0	0	0	0
1	practiceBlock	centre_mouse	2	40	reveal	Picture2.jpg	N_1.png	1	N_2.png	2	N_3.png	3	N_4.png	4	Y_1.png	1	Y_2.png	2	Y_3.png	3	Y_4.png	4	response_G.png	3	response_S.png	4	Word 0 of 6	1	Image 3 of 3	1	very_global.png	7	very_specific.png	6	less_global.png	9	less_specific.png	8	reveal.png	5	0	0	0	0
1	practiceBlock	practice_trial	3	59	yes_1	Picture1.jpg	N_1.png	1	N_2.png	2	N_3.png	3	N_4.png	4	Y_1.png	1	Y_2.png	2	Y_3.png	3	Y_4.png	4	response_G.png	3	response_S.png	4	Word 1 of 6	1	Image 3 of 3	1	very_global.png	7	very_specific.png	6	less_global.png	9	less_specific.png	8	reveal.png	5	red	3	0	0
1	practiceBlock	centre_mouse	4	25	reveal	Picture1.jpg	N_1.png	1	N_2.png	2	N_3.png	3	N_4.png	4	Y_1.png	1	Y_2.png	2	Y_3.png	3	Y_4.png	4	response_G.png	3	response_S.png	4	Word 1 of 6	1	Image 3 of 3	1	very_global.png	7	very_specific.png	6	less_global.png	9	less_specific.png	8	reveal.png	5	0	0	0	0
1	practiceBlock	practice_trial	5	51	yes_2	Picture1.jpg	N_1.png	1	N_2.png	2	N_3.png	3	N_4.png	4	Y_1.png	1	Y_2.png	2	Y_3.png	3	Y_4.png	4	response_G.png	3	response_S.png	4	Word 2 of 6	1	Image 3 of 3	1	very_global.png	7	very_specific.png	6	less_global.png	9	less_specific.png	8	reveal.png	5	black	4	0	0
1	practiceBlock	centre_mouse	6	69	reveal	Picture1.jpg	N_1.png	1	N_2.png	2	N_3.png	3	N_4.png	4	Y_1.png	1	Y_2.png	2	Y_3.png	3	Y_4.png	4	response_G.png	3	response_S.png	4	Word 2 of 6	1	Image 3 of 3	1	very_global.png	7	very_specific.png	6	less_global.png	9	less_specific.png	8	reveal.png	5	0	0	0	0
1	practiceBlock	practice_trial	7	49	no_3	Picture1.jpg	N_1.png	1	N_2.png	2	N_3.png	3	N_4.png	4	Y_1.png	1	Y_2.png	2	Y_3.png	3	Y_4.png	4	response_G.png	3	response_S.png	4	Word 3 of 6	1	Image 3 of 3	1	very_global.png	7	very_specific.png	6	less_global.png	9	less_specific.png	8	reveal.png	5	love	2	0	0
1	practiceBlock	centre_mouse	8	35	reveal	Picture1.jpg	N_1.png	1	N_2.png	2	N_3.png	3	N_4.png	4	Y_1.png	1	Y_2.png	2	Y_3.png	3	Y_4.png	4	response_G.png	3	response_S.png	4	Word 3 of 6	1	Image 3 of 3	1	very_global.png	7	very_specific.png	6	less_global.png	9	less_specific.png	8	reveal.png	5	0	0	0	0
1	practiceBlock	practice_trial	9	34	yes_1	Picture1.jpg	N_1.png	1	N_2.png	2	N_3.png	3	N_4.png	4	Y_1.png	1	Y_2.png	2	Y_3.png	3	Y_4.png	4	response_G.png	3	response_S.png	4	Word 4 of 6	1	Image 3 of 3	1	very_global.png	7	very_specific.png	6	less_global.png	9	less_specific.png	8	reveal.png	5	outline	5	0	0
1	practiceBlock	centre_mouse	10	40	reveal	Picture1.jpg	N_1.png	1	N_2.png	2	N_3.png	3	N_4.png	4	Y_1.png	1	Y_2.png	2	Y_3.png	3	Y_4.png	4	response_G.png	3	response_S.png	4	Word 4 of 6	1	Image 3 of 3	1	very_global.png	7	very_specific.png	6	less_global.png	9	less_specific.png	8	reveal.png	5	0	0	0	0
1	practiceBlock	practice_trial	11	53	no_2	Picture1.jpg	N_1.png	1	N_2.png	2	N_3.png	3	N_4.png	4	Y_1.png	1	Y_2.png	2	Y_3.png	3	Y_4.png	4	response_G.png	3	response_S.png	4	Word 5 of 6	1	Image 3 of 3	1	very_global.png	7	very_specific.png	6	less_global.png	9	less_specific.png	8	reveal.png	5	color	6	0	0
1	practiceBlock	centre_mouse	12	29	reveal	Picture1.jpg	N_1.png	1	N_2.png	2	N_3.png	3	N_4.png	4	Y_1.png	1	Y_2.png	2	Y_3.png	3	Y_4.png	4	response_G.png	3	response_S.png	4	Word 5 of 6	1	Image 3 of 3	1	very_global.png	7	very_specific.png	6	less_global.png	9	less_specific.png	8	reveal.png	5	0	0	0	0
1	practiceBlock	practice_trial	13	40	yes_4	Picture1.jpg	N_1.png	1	N_2.png	2	N_3.png	3	N_4.png	4	Y_1.png	1	Y_2.png	2	Y_3.png	3	Y_4.png	4	response_G.png	3	response_S.png	4	Word 6 of 6	1	Image 3 of 3	1	very_global.png	7	very_specific.png	6	less_global.png	9	less_specific.png	8	reveal.png	5	heart	1	0	0
1	practiceBlock	centre_mouse	14	38	reveal	Picture1.jpg	N_1.png	1	N_2.png	2	N_3.png	3	N_4.png	4	Y_1.png	1	Y_2.png	2	Y_3.png	3	Y_4.png	4	response_G.png	3	response_S.png	4	Word 6 of 6	1	Image 3 of 3	1	very_global.png	7	very_specific.png	6	less_global.png	9	less_specific.png	8	reveal.png	5	0	0	0	0
1	reset	reset	1	200	0	Picture1.jpg	0	0	0	0	0	0	0	0	0	0	0	0	0	0	0	0	0	0	0	0	0	0	0	0	0	0	0	0	0	0	0	0	0	0	0	0	0	0
1	reminder_start	reminder_start	1	62	reveal	Picture1.jpg	Click the center square to proceed to the REAL trials	1	reveal.png	5	0	0	0	0	0	0	0	0	0	0	0	0	0	0	0	0	0	0	0	0	0	0	0	0	0	0	0	0	0	0	0	0	0	0
1	testBlock	test	1	267	0	im0000041.jpg	+	1	im0000063.jpg	4	0	0	0	0	0	0	0	0	0	0	0	0	0	0	0	0	0	0	0	0	0	0	0	0	0	0	0	0	0	0	0	0	0	0
1	testBlock	centre_mouse	2	50	reveal	im0000041.jpg	N_1.png	1	N_2.png	2	N_3.png	3	N_4.png	4	Y_1.png	1	Y_2.png	2	Y_3.png	3	Y_4.png	4	response_G.png	3	response_S.png	4	Word 0 of 6	1	Image 1 of 40	1	very_global.png	7	very_specific.png	6	less_global.png	9	less_specific.png	8	reveal.png	5	0	0	0	0
1	testBlock	present_trial	3	59	no_4	im0000063.jpg	N_1.png	1	N_2.png	2	N_3.png	3	N_4.png	4	Y_1.png	1	Y_2.png	2	Y_3.png	3	Y_4.png	4	response_G.png	3	response_S.png	4	Word 1 of 6	1	Image 1 of 40	1	very_global.png	7	very_specific.png	6	less_global.png	9	less_specific.png	8	reveal.png	5	hippo	1	0	0
1	testBlock	centre_mouse	4	41	reveal	im0000063.jpg	N_1.png	1	N_2.png	2	N_3.png	3	N_4.png	4	Y_1.png	1	Y_2.png	2	Y_3.png	3	Y_4.png	4	response_G.png	3	response_S.png	4	Word 1 of 6	1	Image 1 of 40	1	very_global.png	7	very_specific.png	6	less_global.png	9	less_specific.png	8	reveal.png	5	0	0	0	0
1	testBlock	present_trial	5	48	yes_1	im0000063.jpg	N_1.png	1	N_2.png	2	N_3.png	3	N_4.png	4	Y_1.png	1	Y_2.png	2	Y_3.png	3	Y_4.png	4	response_G.png	3	response_S.png	4	Word 2 of 6	1	Image 1 of 40	1	very_global.png	7	very_specific.png	6	less_global.png	9	less_specific.png	8	reveal.png	5	animal	4	0	0
1	testBlock	centre_mouse	6	37	reveal	im0000063.jpg	N_1.png	1	N_2.png	2	N_3.png	3	N_4.png	4	Y_1.png	1	Y_2.png	2	Y_3.png	3	Y_4.png	4	response_G.png	3	response_S.png	4	Word 2 of 6	1	Image 1 of 40	1	very_global.png	7	very_specific.png	6	less_global.png	9	less_specific.png	8	reveal.png	5	0	0	0	0
1	testBlock	present_trial	7	26	no_2	im0000063.jpg	N_1.png	1	N_2.png	2	N_3.png	3	N_4.png	4	Y_1.png	1	Y_2.png	2	Y_3.png	3	Y_4.png	4	response_G.png	3	response_S.png	4	Word 3 of 6	1	Image 1 of 40	1	very_global.png	7	very_specific.png	6	less_global.png	9	less_specific.png	8	reveal.png	5	water	2	0	0
1	testBlock	centre_mouse	8	67	reveal	im0000063.jpg	N_1.png	1	N_2.png	2	N_3.png	3	N_4.png	4	Y_1.png	1	Y_2.png	2	Y_3.png	3	Y_4.png	4	response_G.png	3	response_S.png	4	Word 3 of 6	1	Image 1 of 40	1	very_global.png	7	very_specific.png	6	less_global.png	9	less_specific.png	8	reveal.png	5	0	0	0	0
1	testBlock	present_trial	9	44	no_1	im0000063.jpg	N_1.png	1	N_2.png	2	N_3.png	3	N_4.png	4	Y_1.png	1	Y_2.png	2	Y_3.png	3	Y_4.png	4	response_G.png	3	response_S.png	4	Word 4 of 6	1	Image 1 of 40	1	very_global.png	7	very_specific.png	6	less_global.png	9	less_specific.png	8	reveal.png	5	rhino	5	0	0
1	testBlock	centre_mouse	10	50	reveal	im0000063.jpg	N_1.png	1	N_2.png	2	N_3.png	3	N_4.png	4	Y_1.png	1	Y_2.png	2	Y_3.png	3	Y_4.png	4	response_G.png	3	response_S.png	4	Word 4 of 6	1	Image 1 of 40	1	very_global.png	7	very_specific.png	6	less_global.png	9	less_specific.png	8	reveal.png	5	0	0	0	0
1	testBlock	present_trial	11	54	no_4	im0000063.jpg	N_1.png	1	N_2.png	2	N_3.png	3	N_4.png	4	Y_1.png	1	Y_2.png	2	Y_3.png	3	Y_4.png	4	response_G.png	3	response_S.png	4	Word 5 of 6	1	Image 1 of 40	1	very_global.png	7	very_specific.png	6	less_global.png	9	less_specific.png	8	reveal.png	5	grey	6	0	0
1	testBlock	centre_mouse	12	36	reveal	im0000063.jpg	N_1.png	1	N_2.png	2	N_3.png	3	N_4.png	4	Y_1.png	1	Y_2.png	2	Y_3.png	3	Y_4.png	4	response_G.png	3	response_S.png	4	Word 5 of 6	1	Image 1 of 40	1	very_global.png	7	very_specific.png	6	less_global.png	9	less_specific.png	8	reveal.png	5	0	0	0	0
1	testBlock	present_trial	13	51	no_1	im0000063.jpg	N_1.png	1	N_2.png	2	N_3.png	3	N_4.png	4	Y_1.png	1	Y_2.png	2	Y_3.png	3	Y_4.png	4	response_G.png	3	response_S.png	4	Word 6 of 6	1	Image 1 of 40	1	very_global.png	7	very_specific.png	6	less_global.png	9	less_specific.png	8	reveal.png	5	family	3	0	0
1	testBlock	centre_mouse	14	28	reveal	im0000063.jpg	N_1.png	1	N_2.png	2	N_3.png	3	N_4.png	4	Y_1.png	1	Y_2.png	2	Y_3.png	3	Y_4.png	4	response_G.png	3	response_S.png	4	Word 6 of 6	1	Image 1 of 40	1	very_global.png	7	very_specific.png	6	less_global.png	9	less_specific.png	8	reveal.png	5	0	0	0	0
1	testBlock	test	1	267	0	im0000063.jpg	+	1	im0000393.jpg	39	0	0	0	0	0	0	0	0	0	0	0	0	0	0	0	0	0	0	0	0	0	0	0	0	0	0	0	0	0	0	0	0	0	0
1	testBlock	centre_mouse	2	47	reveal	im0000063.jpg	N_1.png	1	N_2.png	2	N_3.png	3	N_4.png	4	Y_1.png	1	Y_2.png	2	Y_3.png	3	Y_4.png	4	response_G.png	3	response_S.png	4	Word 0 of 6	1	Image 2 of 40	1	very_global.png	7	very_specific.png	6	less_global.png	9	less_specific.png	8	reveal.png	5	0	0	0	0
1	testBlock	present_trial	3	34	no_2	im0000393.jpg	N_1.png	1	N_2.png	2	N_3.png	3	N_4.png	4	Y_1.png	1	Y_2.png	2	Y_3.png	3	Y_4.png	4	response_G.png	3	response_S.png	4	Word 1 of 6	1	Image 2 of 40	1	very_global.png	7	very_specific.png	6	less_global.png	9	less_specific.png	8	reveal.png	5	open-road	5	0	0
1	testBlock	centre_mouse	4	38	reveal	im0000393.jpg	N_1.png	1	N_2.png	2	N_3.png	3	N_4.png	4	Y_1.png	1	Y_2.png	2	Y_3.png	3	Y_4.png	4	response_G.png	3	response_S.png	4	Word 1 of 6	1	Image 2 of 40	1	very_global.png	7	very_specific.png	6	less_global.png	9	less_specific.png	8	reveal.png	5	0	0	0	0
1	testBlock	present_trial	5	46	no_1	im0000393.jpg	N_1.png	1	N_2.png	2	N_3.png	3	N_4.png	4	Y_1.png	1	Y_2.png	2	Y_3.png	3	Y_4.png	4	response_G.png	3	response_S.png	4	Word 2 of 6	1	Image 2 of 40	1	very_global.png	7	very_specific.png	6	less_global.png	9	less_specific.png	8	reveal.png	5	car	1	0	0
1	testBlock	centre_mouse	6	35	reveal	im0000393.jpg	N_1.png	1	N_2.png	2	N_3.png	3	N_4.png	4	Y_1.png	1	Y_2.png	2	Y_3.png	3	Y_4.png	4	response_G.png	3	response_S.png	4	Word 2 of 6	1	Image 2 of 40	1	very_global.png	7	very_specific.png	6	less_global.png	9	less_specific.png	8	reveal.png	5	0	0	0	0
1	testBlock	present_trial	7	32	no_1	im0000393.jpg	N_1.png	1	N_2.png	2	N_3.png	3	N_4.png	4	Y_1.png	1	Y_2.png	2	Y_3.png	3	Y_4.png	4	response_G.png	3	response_S.png	4	Word 3 of 6	1	Image 2 of 40	1	very_global.png	7	very_specific.png	6	less_global.png	9	less_specific.png	8	reveal.png	5	sky	4	0	0
1	testBlock	centre_mouse	8	33	reveal	im0000393.jpg	N_1.png	1	N_2.png	2	N_3.png	3	N_4.png	4	Y_1.png	1	Y_2.png	2	Y_3.png	3	Y_4.png	4	response_G.png	3	response_S.png	4	Word 3 of 6	1	Image 2 of 40	1	very_global.png	7	very_specific.png	6	less_global.png	9	less_specific.png	8	reveal.png	5	0	0	0	0
1	testBlock	present_trial	9	41	yes_3	im0000393.jpg	N_1.png	1	N_2.png	2	N_3.png	3	N_4.png	4	Y_1.png	1	Y_2.png	2	Y_3.png	3	Y_4.png	4	response_G.png	3	response_S.png	4	Word 4 of 6	1	Image 2 of 40	1	very_global.png	7	very_specific.png	6	less_global.png	9	less_specific.png	8	reveal.png	5	mountain	3	0	0
1	testBlock	centre_mouse	10	71	reveal	im0000393.jpg	N_1.png	1	N_2.png	2	N_3.png	3	N_4.png	4	Y_1.png	1	Y_2.png	2	Y_3.png	3	Y_4.png	4	response_G.png	3	response_S.png	4	Word 4 of 6	1	Image 2 of 40	1	very_global.png	7	very_specific.png	6	less_global.png	9	less_specific.png	8	reveal.png	5	0	0	0	0
1	testBlock	present_trial	11	64	yes_4	im0000393.jpg	N_1.png	1	N_2.png	2	N_3.png	3	N_4.png	4	Y_1.png	1	Y_2.png	2	Y_3.png	3	Y_4.png	4	response_G.png	3	response_S.png	4	Word 5 of 6	1	Image 2 of 40	1	very_global.png	7	very_specific.png	6	less_global.png	9	less_specific.png	8	reveal.png	5	road	2	0	0
1	testBlock	centre_mouse	12	36	reveal	im0000393.jpg	N_1.png	1	N_2.png	2	N_3.png	3	N_4.png	4	Y_1.png	1	Y_2.png	2	Y_3.png	3	Y_4.png	4	response_G.png	3	response_S.png	4	Word 5 of 6	1	Image 2 of 40	1	very_global.png	7	very_specific.png	6	less_global.png	9	less_specific.png	8	reveal.png	5	0	0	0	0
1	testBlock	present_trial	13	43	no_1	im0000393.jpg	N_1.png	1	N_2.png	2	N_3.png	3	N_4.png	4	Y_1.png	1	Y_2.png	2	Y_3.png	3	Y_4.png	4	response_G.png	3	response_S.png	4	Word 6 of 6	1	Image 2 of 40	1	very_global.png	7	very_specific.png	6	less_global.png	9	less_specific.png	8	reveal.png	5	drive	6	0	0
1	testBlock	centre_mouse	14	62	reveal	im0000393.jpg	N_1.png	1	N_2.png	2	N_3.png	3	N_4.png	4	Y_1.png	1	Y_2.png	2	Y_3.png	3	Y_4.png	4	response_G.png	3	response_S.png	4	Word 6 of 6	1	Image 2 of 40	1	very_global.png	7	very_specific.png	6	less_global.png	9	less_specific.png	8	reveal.png	5	0	0	0	0
1	testBlock	test	1	267	0	im0000393.jpg	+	1	im0000402.jpg	40	0	0	0	0	0	0	0	0	0	0	0	0	0	0	0	0	0	0	0	0	0	0	0	0	0	0	0	0	0	0	0	0	0	0
1	testBlock	centre_mouse	2	46	reveal	im0000393.jpg	N_1.png	1	N_2.png	2	N_3.png	3	N_4.png	4	Y_1.png	1	Y_2.png	2	Y_3.png	3	Y_4.png	4	response_G.png	3	response_S.png	4	Word 0 of 6	1	Image 3 of 40	1	very_global.png	7	very_specific.png	6	less_global.png	9	less_specific.png	8	reveal.png	5	0	0	0	0
1	testBlock	present_trial	3	50	no_4	im0000402.jpg	N_1.png	1	N_2.png	2	N_3.png	3	N_4.png	4	Y_1.png	1	Y_2.png	2	Y_3.png	3	Y_4.png	4	response_G.png	3	response_S.png	4	Word 1 of 6	1	Image 3 of 40	1	very_global.png	7	very_specific.png	6	less_global.png	9	less_specific.png	8	reveal.png	5	people	6	0	0
1	testBlock	centre_mouse	4	30	reveal	im0000402.jpg	N_1.png	1	N_2.png	2	N_3.png	3	N_4.png	4	Y_1.png	1	Y_2.png	2	Y_3.png	3	Y_4.png	4	response_G.png	3	response_S.png	4	Word 1 of 6	1	Image 3 of 40	1	very_global.png	7	very_specific.png	6	less_global.png	9	less_specific.png	8	reveal.png	5	0	0	0	0
1	testBlock	present_trial	5	42	no_4	im0000402.jpg	N_1.png	1	N_2.png	2	N_3.png	3	N_4.png	4	Y_1.png	1	Y_2.png	2	Y_3.png	3	Y_4.png	4	response_G.png	3	response_S.png	4	Word 2 of 6	1	Image 3 of 40	1	very_global.png	7	very_specific.png	6	less_global.png	9	less_specific.png	8	reveal.png	5	busy	2	0	0
1	testBlock	centre_mouse	6	49	reveal	im0000402.jpg	N_1.png	1	N_2.png	2	N_3.png	3	N_4.png	4	Y_1.png	1	Y_2.png	2	Y_3.png	3	Y_4.png	4	response_G.png	3	response_S.png	4	Word 2 of 6	1	Image 3 of 40	1	very_global.png	7	very_specific.png	6	less_global.png	9	less_specific.png	8	reveal.png	5	0	0	0	0
1	testBlock	present_trial	7	22	no_3	im0000402.jpg	N_1.png	1	N_2.png	2	N_3.png	3	N_4.png	4	Y_1.png	1	Y_2.png	2	Y_3.png	3	Y_4.png	4	response_G.png	3	response_S.png	4	Word 3 of 6	1	Image 3 of 40	1	very_global.png	7	very_specific.png	6	less_global.png	9	less_specific.png	8	reveal.png	5	car	1	0	0
1	testBlock	centre_mouse	8	52	reveal	im0000402.jpg	N_1.png	1	N_2.png	2	N_3.png	3	N_4.png	4	Y_1.png	1	Y_2.png	2	Y_3.png	3	Y_4.png	4	response_G.png	3	response_S.png	4	Word 3 of 6	1	Image 3 of 40	1	very_global.png	7	very_specific.png	6	less_global.png	9	less_specific.png	8	reveal.png	5	0	0	0	0
1	testBlock	present_trial	9	31	yes_2	im0000402.jpg	N_1.png	1	N_2.png	2	N_3.png	3	N_4.png	4	Y_1.png	1	Y_2.png	2	Y_3.png	3	Y_4.png	4	response_G.png	3	response_S.png	4	Word 4 of 6	1	Image 3 of 40	1	very_global.png	7	very_specific.png	6	less_global.png	9	less_specific.png	8	reveal.png	5	daytime	5	0	0
1	testBlock	centre_mouse	10	41	reveal	im0000402.jpg	N_1.png	1	N_2.png	2	N_3.png	3	N_4.png	4	Y_1.png	1	Y_2.png	2	Y_3.png	3	Y_4.png	4	response_G.png	3	response_S.png	4	Word 4 of 6	1	Image 3 of 40	1	very_global.png	7	very_specific.png	6	less_global.png	9	less_specific.png	8	reveal.png	5	0	0	0	0
1	testBlock	present_trial	11	37	no_4	im0000402.jpg	N_1.png	1	N_2.png	2	N_3.png	3	N_4.png	4	Y_1.png	1	Y_2.png	2	Y_3.png	3	Y_4.png	4	response_G.png	3	response_S.png	4	Word 5 of 6	1	Image 3 of 40	1	very_global.png	7	very_specific.png	6	less_global.png	9	less_specific.png	8	reveal.png	5	building	3	0	0
1	testBlock	centre_mouse	12	57	reveal	im0000402.jpg	N_1.png	1	N_2.png	2	N_3.png	3	N_4.png	4	Y_1.png	1	Y_2.png	2	Y_3.png	3	Y_4.png	4	response_G.png	3	response_S.png	4	Word 5 of 6	1	Image 3 of 40	1	very_global.png	7	very_specific.png	6	less_global.png	9	less_specific.png	8	reveal.png	5	0	0	0	0
1	testBlock	present_trial	13	34	no_2	im0000402.jpg	N_1.png	1	N_2.png	2	N_3.png	3	N_4.png	4	Y_1.png	1	Y_2.png	2	Y_3.png	3	Y_4.png	4	response_G.png	3	response_S.png	4	Word 6 of 6	1	Image 3 of 40	1	very_global.png	7	very_specific.png	6	less_global.png	9	less_specific.png	8	reveal.png	5	sunny	4	0	0
1	testBlock	centre_mouse	14	38	reveal	im0000402.jpg	N_1.png	1	N_2.png	2	N_3.png	3	N_4.png	4	Y_1.png	1	Y_2.png	2	Y_3.png	3	Y_4.png	4	response_G.png	3	response_S.png	4	Word 6 of 6	1	Image 3 of 40	1	very_global.png	7	very_specific.png	6	less_global.png	9	less_specific.png	8	reveal.png	5	0	0	0	0
1	testBlock	test	1	267	0	im0000402.jpg	+	1	im0000333.jpg	33	0	0	0	0	0	0	0	0	0	0	0	0	0	0	0	0	0	0	0	0	0	0	0	0	0	0	0	0	0	0	0	0	0	0
1	testBlock	centre_mouse	2	32	reveal	im0000402.jpg	N_1.png	1	N_2.png	2	N_3.png	3	N_4.png	4	Y_1.png	1	Y_2.png	2	Y_3.png	3	Y_4.png	4	response_G.png	3	response_S.png	4	Word 0 of 6	1	Image 4 of 40	1	very_global.png	7	very_specific.png	6	less_global.png	9	less_specific.png	8	reveal.png	5	0	0	0	0
1	testBlock	present_trial	3	43	no_1	im0000333.jpg	N_1.png	1	N_2.png	2	N_3.png	3	N_4.png	4	Y_1.png	1	Y_2.png	2	Y_3.png	3	Y_4.png	4	response_G.png	3	response_S.png	4	Word 1 of 6	1	Image 4 of 40	1	very_global.png	7	very_specific.png	6	less_global.png	9	less_specific.png	8	reveal.png	5	river	2	0	0
1	testBlock	centre_mouse	4	30	reveal	im0000333.jpg	N_1.png	1	N_2.png	2	N_3.png	3	N_4.png	4	Y_1.png	1	Y_2.png	2	Y_3.png	3	Y_4.png	4	response_G.png	3	response_S.png	4	Word 1 of 6	1	Image 4 of 40	1	very_global.png	7	very_specific.png	6	less_global.png	9	less_specific.png	8	reveal.png	5	0	0	0	0
1	testBlock	present_trial	5	41	yes_2	im0000333.jpg	N_1.png	1	N_2.png	2	N_3.png	3	N_4.png	4	Y_1.png	1	Y_2.png	2	Y_3.png	3	Y_4.png	4	response_G.png	3	response_S.png	4	Word 2 of 6	1	Image 4 of 40	1	very_global.png	7	very_specific.png	6	less_global.png	9	less_specific.png	8	reveal.png	5	build	3	0	0
1	testBlock	centre_mouse	6	67	reveal	im0000333.jpg	N_1.png	1	N_2.png	2	N_3.png	3	N_4.png	4	Y_1.png	1	Y_2.png	2	Y_3.png	3	Y_4.png	4	response_G.png	3	response_S.png	4	Word 2 of 6	1	Image 4 of 40	1	very_global.png	7	very_specific.png	6	less_global.png	9	less_specific.png	8	reveal.png	5	0	0	0	0
1	testBlock	present_trial	7	27	yes_1	im0000333.jpg	N_1.png	1	N_2.png	2	N_3.png	3	N_4.png	4	Y_1.png	1	Y_2.png	2	Y_3.png	3	Y_4.png	4	response_G.png	3	response_S.png	4	Word 3 of 6	1	Image 4 of 40	1	very_global.png	7	very_specific.png	6	less_global.png	9	less_specific.png	8	reveal.png	5	colorful	6	0	0
1	testBlock	centre_mouse	8	40	reveal	im0000333.jpg	N_1.png	1	N_2.png	2	N_3.png	3	N_4.png	4	Y_1.png	1	Y_2.png	2	Y_3.png	3	Y_4.png	4	response_G.png	3	response_S.png	4	Word 3 of 6	1	Image 4 of 40	1	very_global.png	7	very_specific.png	6	less_global.png	9	less_specific.png	8	reveal.png	5	0	0	0	0
1	testBlock	present_trial	9	38	no_4	im0000333.jpg	N_1.png	1	N_2.png	2	N_3.png	3	N_4.png	4	Y_1.png	1	Y_2.png	2	Y_3.png	3	Y_4.png	4	response_G.png	3	response_S.png	4	Word 4 of 6	1	Image 4 of 40	1	very_global.png	7	very_specific.png	6	less_global.png	9	less_specific.png	8	reveal.png	5	boat	1	0	0
1	testBlock	centre_mouse	10	60	reveal	im0000333.jpg	N_1.png	1	N_2.png	2	N_3.png	3	N_4.png	4	Y_1.png	1	Y_2.png	2	Y_3.png	3	Y_4.png	4	response_G.png	3	response_S.png	4	Word 4 of 6	1	Image 4 of 40	1	very_global.png	7	very_specific.png	6	less_global.png	9	less_specific.png	8	reveal.png	5	0	0	0	0
1	testBlock	present_trial	11	32	no_1	im0000333.jpg	N_1.png	1	N_2.png	2	N_3.png	3	N_4.png	4	Y_1.png	1	Y_2.png	2	Y_3.png	3	Y_4.png	4	response_G.png	3	response_S.png	4	Word 5 of 6	1	Image 4 of 40	1	very_global.png	7	very_specific.png	6	less_global.png	9	less_specific.png	8	reveal.png	5	city	4	0	0
1	testBlock	centre_mouse	12	41	reveal	im0000333.jpg	N_1.png	1	N_2.png	2	N_3.png	3	N_4.png	4	Y_1.png	1	Y_2.png	2	Y_3.png	3	Y_4.png	4	response_G.png	3	response_S.png	4	Word 5 of 6	1	Image 4 of 40	1	very_global.png	7	very_specific.png	6	less_global.png	9	less_specific.png	8	reveal.png	5	0	0	0	0
1	testBlock	present_trial	13	42	yes_3	im0000333.jpg	N_1.png	1	N_2.png	2	N_3.png	3	N_4.png	4	Y_1.png	1	Y_2.png	2	Y_3.png	3	Y_4.png	4	response_G.png	3	response_S.png	4	Word 6 of 6	1	Image 4 of 40	1	very_global.png	7	very_specific.png	6	less_global.png	9	less_specific.png	8	reveal.png	5	town	5	0	0
1	testBlock	centre_mouse	14	58	reveal	im0000333.jpg	N_1.png	1	N_2.png	2	N_3.png	3	N_4.png	4	Y_1.png	1	Y_2.png	2	Y_3.png	3	Y_4.png	4	response_G.png	3	response_S.png	4	Word 6 of 6	1	Image 4 of 40	1	very_global.png	7	very_specific.png	6	less_global.png	9	less_specific.png	8	reveal.png	5	0	0	0	0
1	testBlock	test	1	267	0	im0000333.jpg	+	1	im0000245.jpg	20	0	0	0	0	0	0	0	0	0	0	0	0	0	0	0	0	0	0	0	0	0	0	0	0	0	0	0	0	0	0	0	0	0	0
1	testBlock	centre_mouse	2	33	reveal	im0000333.jpg	N_1.png	1	N_2.png	2	N_3.png	3	N_4.png	4	Y_1.png	1	Y_2.png	2	Y_3.png	3	Y_4.png	4	response_G.png	3	response_S.png	4	Word 0 of 6	1	Image 5 of 40	1	very_global.png	7	very_specific.png	6	less_global.png	9	less_specific.png	8	reveal.png	5	0	0	0	0
1	testBlock	present_trial	3	43	no_4	im0000245.jpg	N_1.png	1	N_2.png	2	N_3.png	3	N_4.png	4	Y_1.png	1	Y_2.png	2	Y_3.png	3	Y_4.png	4	response_G.png	3	response_S.png	4	Word 1 of 6	1	Image 5 of 40	1	very_global.png	7	very_specific.png	6	less_global.png	9	less_specific.png	8	reveal.png	5	socialize	3	0	0
1	testBlock	centre_mouse	4	39	reveal	im0000245.jpg	N_1.png	1	N_2.png	2	N_3.png	3	N_4.png	4	Y_1.png	1	Y_2.png	2	Y_3.png	3	Y_4.png	4	response_G.png	3	response_S.png	4	Word 1 of 6	1	Image 5 of 40	1	very_global.png	7	very_specific.png	6	less_global.png	9	less_specific.png	8	reveal.png	5	0	0	0	0
1	testBlock	present_trial	5	26	yes_1	im0000245.jpg	N_1.png	1	N_2.png	2	N_3.png	3	N_4.png	4	Y_1.png	1	Y_2.png	2	Y_3.png	3	Y_4.png	4	response_G.png	3	response_S.png	4	Word 2 of 6	1	Image 5 of 40	1	very_global.png	7	very_specific.png	6	less_global.png	9	less_specific.png	8	reveal.png	5	stool	5	0	0
1	testBlock	centre_mouse	6	53	reveal	im0000245.jpg	N_1.png	1	N_2.png	2	N_3.png	3	N_4.png	4	Y_1.png	1	Y_2.png	2	Y_3.png	3	Y_4.png	4	response_G.png	3	response_S.png	4	Word 2 of 6	1	Image 5 of 40	1	very_global.png	7	very_specific.png	6	less_global.png	9	less_specific.png	8	reveal.png	5	0	0	0	0
1	testBlock	present_trial	7	36	no_1	im0000245.jpg	N_1.png	1	N_2.png	2	N_3.png	3	N_4.png	4	Y_1.png	1	Y_2.png	2	Y_3.png	3	Y_4.png	4	response_G.png	3	response_S.png	4	Word 3 of 6	1	Image 5 of 40	1	very_global.png	7	very_specific.png	6	less_global.png	9	less_specific.png	8	reveal.png	5	sit	2	0	0
1	testBlock	centre_mouse	8	60	reveal	im0000245.jpg	N_1.png	1	N_2.png	2	N_3.png	3	N_4.png	4	Y_1.png	1	Y_2.png	2	Y_3.png	3	Y_4.png	4	response_G.png	3	response_S.png	4	Word 3 of 6	1	Image 5 of 40	1	very_global.png	7	very_specific.png	6	less_global.png	9	less_specific.png	8	reveal.png	5	0	0	0	0
1	testBlock	present_trial	9	43	no_2	im0000245.jpg	N_1.png	1	N_2.png	2	N_3.png	3	N_4.png	4	Y_1.png	1	Y_2.png	2	Y_3.png	3	Y_4.png	4	response_G.png	3	response_S.png	4	Word 4 of 6	1	Image 5 of 40	1	very_global.png	7	very_specific.png	6	less_global.png	9	less_specific.png	8	reveal.png	5	talk	6	0	0
1	testBlock	centre_mouse	10	42	reveal	im0000245.jpg	N_1.png	1	N_2.png	2	N_3.png	3	N_4.png	4	Y_1.png	1	Y_2.png	2	Y_3.png	3	Y_4.png	4	response_G.png	3	response_S.png	4	Word 4 of 6	1	Image 5 of 40	1	very_global.png	7	very_specific.png	6	less_global.png	9	less_specific.png	8	reveal.png	5	0	0	0	0
1	testBlock	present_trial	11	22	yes_3	im0000245.jpg	N_1.png	1	N_2.png	2	N_3.png	3	N_4.png	4	Y_1.png	1	Y_2.png	2	Y_3.png	3	Y_4.png	4	response_G.png	3	response_S.png	4	Word 5 of 6	1	Image 5 of 40	1	very_global.png	7	very_specific.png	6	less_global.png	9	less_specific.png	8	reveal.png	5	relax	1	0	0
1	testBlock	centre_mouse	12	50	reveal	im0000245.jpg	N_1.png	1	N_2.png	2	N_3.png	3	N_4.png	4	Y_1.png	1	Y_2.png	2	Y_3.png	3	Y_4.png	4	response_G.png	3	response_S.png	4	Word 5 of 6	1	Image 5 of 40	1	very_global.png	7	very_specific.png	6	less_global.png	9	less_specific.png	8	reveal.png	5	0	0	0	0
1	testBlock	present_trial	13	24	yes_4	im0000245.jpg	N_1.png	1	N_2.png	2	N_3.png	3	N_4.png	4	Y_1.png	1	Y_2.png	2	Y_3.png	3	Y_4.png	4	response_G.png	3	response_S.png	4	Word 6 of 6	1	Image 5 of 40	1	very_global.png	7	very_specific.png	6	less_global.png	9	less_specific.png	8	reveal.png	5	bar	4	0	0
1	testBlock	centre_mouse	14	57	reveal	im0000245.jpg	N_1.png	1	N_2.png	2	N_3.png	3	N_4.png	4	Y_1.png	1	Y_2.png	2	Y_3.png	3	Y_4.png	4	response_G.png	3	response_S.png	4	Word 6 of 6	1	Image 5 of 40	1	very_global.png	7	very_specific.png	6	less_global.png	9	less_specific.png	8	reveal.png	5	0	0	0	0
1	testBlock	test	1	267	0	im0000245.jpg	+	1	im0000376.jpg	36	0	0	0	0	0	0	0	0	0	0	0	0	0	0	0	0	0	0	0	0	0	0	0	0	0	0	0	0	0	0	0	0	0	0
1	testBlock	centre_mouse	2	41	reveal	im0000245.jpg	N_1.png	1	N_2.png	2	N_3.png	3	N_4.png	4	Y_1.png	1	Y_2.png	2	Y_3.png	3	Y_4.png	4	response_G.png	3	response_S.png	4	Word 0 of 6	1	Image 6 of 40	1	very_global.png	7	very_specific.png	6	less_global.png	9	less_specific.png	8	reveal.png	5	0	0	0	0
1	testBlock	present_trial	3	60	no_4	im0000376.jpg	N_1.png	1	N_2.png	2	N_3.png	3	N_4.png	4	Y_1.png	1	Y_2.png	2	Y_3.png	3	Y_4.png	4	response_G.png	3	response_S.png	4	Word 1 of 6	1	Image 6 of 40	1	very_global.png	7	very_specific.png	6	less_global.png	9	less_specific.png	8	reveal.png	5	road	6	0	0
1	testBlock	centre_mouse	4	33	reveal	im0000376.jpg	N_1.png	1	N_2.png	2	N_3.png	3	N_4.png	4	Y_1.png	1	Y_2.png	2	Y_3.png	3	Y_4.png	4	response_G.png	3	response_S.png	4	Word 1 of 6	1	Image 6 of 40	1	very_global.png	7	very_specific.png	6	less_global.png	9	less_specific.png	8	reveal.png	5	0	0	0	0
1	testBlock	present_trial	5	31	yes_4	im0000376.jpg	N_1.png	1	N_2.png	2	N_3.png	3	N_4.png	4	Y_1.png	1	Y_2.png	2	Y_3.png	3	Y_4.png	4	response_G.png	3	response_S.png	4	Word 2 of 6	1	Image 6 of 40	1	very_global.png	7	very_specific.png	6	less_global.png	9	less_specific.png	8	reveal.png	5	traffic	2	0	0
1	testBlock	centre_mouse	6	48	reveal	im0000376.jpg	N_1.png	1	N_2.png	2	N_3.png	3	N_4.png	4	Y_1.png	1	Y_2.png	2	Y_3.png	3	Y_4.png	4	response_G.png	3	response_S.png	4	Word 2 of 6	1	Image 6 of 40	1	very_global.png	7	very_specific.png	6	less_global.png	9	less_specific.png	8	reveal.png	5	0	0	0	0
1	testBlock	present_trial	7	40	no_2	im0000376.jpg	N_1.png	1	N_2.png	2	N_3.png	3	N_4.png	4	Y_1.png	1	Y_2.png	2	Y_3.png	3	Y_4.png	4	response_G.png	3	response_S.png	4	Word 3 of 6	1	Image 6 of 40	1	very_global.png	7	very_specific.png	6	less_global.png	9	less_specific.png	8	reveal.png	5	van	5	0	0
1	testBlock	centre_mouse	8	55	reveal	im0000376.jpg	N_1.png	1	N_2.png	2	N_3.png	3	N_4.png	4	Y_1.png	1	Y_2.png	2	Y_3.png	3	Y_4.png	4	response_G.png	3	response_S.png	4	Word 3 of 6	1	Image 6 of 40	1	very_global.png	7	very_specific.png	6	less_global.png	9	less_specific.png	8	reveal.png	5	0	0	0	0
1	testBlock	present_trial	9	20	yes_1	im0000376.jpg	N_1.png	1	N_2.png	2	N_3.png	3	N_4.png	4	Y_1.png	1	Y_2.png	2	Y_3.png	3	Y_4.png	4	response_G.png	3	response_S.png	4	Word 4 of 6	1	Image 6 of 40	1	very_global.png	7	very_specific.png	6	less_global.png	9	less_specific.png	8	reveal.png	5	highway	3	0	0
1	testBlock	centre_mouse	10	41	reveal	im0000376.jpg	N_1.png	1	N_2.png	2	N_3.png	3	N_4.png	4	Y_1.png	1	Y_2.png	2	Y_3.png	3	Y_4.png	4	response_G.png	3	response_S.png	4	Word 4 of 6	1	Image 6 of 40	1	very_global.png	7	very_specific.png	6	less_global.png	9	less_specific.png	8	reveal.png	5	0	0	0	0
1	testBlock	present_trial	11	50	yes_1	im0000376.jpg	N_1.png	1	N_2.png	2	N_3.png	3	N_4.png	4	Y_1.png	1	Y_2.png	2	Y_3.png	3	Y_4.png	4	response_G.png	3	response_S.png	4	Word 5 of 6	1	Image 6 of 40	1	very_global.png	7	very_specific.png	6	less_global.png	9	less_specific.png	8	reveal.png	5	truck	1	0	0
1	testBlock	centre_mouse	12	38	reveal	im0000376.jpg	N_1.png	1	N_2.png	2	N_3.png	3	N_4.png	4	Y_1.png	1	Y_2.png	2	Y_3.png	3	Y_4.png	4	response_G.png	3	response_S.png	4	Word 5 of 6	1	Image 6 of 40	1	very_global.png	7	very_specific.png	6	less_global.png	9	less_specific.png	8	reveal.png	5	0	0	0	0
1	testBlock	present_trial	13	57	yes_4	im0000376.jpg	N_1.png	1	N_2.png	2	N_3.png	3	N_4.png	4	Y_1.png	1	Y_2.png	2	Y_3.png	3	Y_4.png	4	response_G.png	3	response_S.png	4	Word 6 of 6	1	Image 6 of 40	1	very_global.png	7	very_specific.png	6	less_global.png	9	less_specific.png	8	reveal.png	5	bike	4	0	0
1	testBlock	centre_mouse	14	62	reveal	im0000376.jpg	N_1.png	1	N_2.png	2	N_3.png	3	N_4.png	4	Y_1.png	1	Y_2.png	2	Y_3.png	3	Y_4.png	4	response_G.png	3	response_S.png	4	Word 6 of 6	1	Image 6 of 40	1	very_global.png	7	very_specific.png	6	less_global.png	9	less_specific.png	8	reveal.png	5	0	0	0	0
1	testBlock	test	1	267	0	im0000376.jpg	+	1	im0000282.jpg	26	0	0	0	0	0	0	0	0	0	0	0	0	0	0	0	0	0	0	0	0	0	0	0	0	0	0	0	0	0	0	0	0	0	0
1	testBlock	centre_mouse	2	50	reveal	im0000376.jpg	N_1.png	1	N_2.png	2	N_3.png	3	N_4.png	4	Y_1.png	1	Y_2.png	2	Y_3.png	3	Y_4.png	4	response_G.png	3	response_S.png	4	Word 0 of 6	1	Image 7 of 40	1	very_global.png	7	very_specific.png	6	less_global.png	9	less_specific.png	8	reveal.png	5	0	0	0	0
1	testBlock	present_trial	3	31	yes_1	im0000282.jpg	N_1.png	1	N_2.png	2	N_3.png	3	N_4.png	4	Y_1.png	1	Y_2.png	2	Y_3.png	3	Y_4.png	4	response_G.png	3	response_S.png	4	Word 1 of 6	1	Image 7 of 40	1	very_global.png	7	very_specific.png	6	less_global.png	9	less_specific.png	8	reveal.png	5	dirt	6	0	0
1	testBlock	centre_mouse	4	30	reveal	im0000282.jpg	N_1.png	1	N_2.png	2	N_3.png	3	N_4.png	4	Y_1.png	1	Y_2.png	2	Y_3.png	3	Y_4.png	4	response_G.png	3	response_S.png	4	Word 1 of 6	1	Image 7 of 40	1	very_global.png	7	very_specific.png	6	less_global.png	9	less_specific.png	8	reveal.png	5	0	0	0	0
1	testBlock	present_trial	5	36	yes_1	im0000282.jpg	N_1.png	1	N_2.png	2	N_3.png	3	N_4.png	4	Y_1.png	1	Y_2.png	2	Y_3.png	3	Y_4.png	4	response_G.png	3	response_S.png	4	Word 2 of 6	1	Image 7 of 40	1	very_global.png	7	very_specific.png	6	less_global.png	9	less_specific.png	8	reveal.png	5	grass	2	0	0
1	testBlock	centre_mouse	6	43	reveal	im0000282.jpg	N_1.png	1	N_2.png	2	N_3.png	3	N_4.png	4	Y_1.png	1	Y_2.png	2	Y_3.png	3	Y_4.png	4	response_G.png	3	response_S.png	4	Word 2 of 6	1	Image 7 of 40	1	very_global.png	7	very_specific.png	6	less_global.png	9	less_specific.png	8	reveal.png	5	0	0	0	0
1	testBlock	present_trial	7	52	no_2	im0000282.jpg	N_1.png	1	N_2.png	2	N_3.png	3	N_4.png	4	Y_1.png	1	Y_2.png	2	Y_3.png	3	Y_4.png	4	response_G.png	3	response_S.png	4	Word 3 of 6	1	Image 7 of 40	1	very_global.png	7	very_specific.png	6	less_global.png	9	less_specific.png	8	reveal.png	5	rabbit	4	0	0
1	testBlock	centre_mouse	8	39	reveal	im0000282.jpg	N_1.png	1	N_2.png	2	N_3.png	3	N_4.png	4	Y_1.png	1	Y_2.png	2	Y_3.png	3	Y_4.png	4	response_G.png	3	response_S.png	4	Word 3 of 6	1	Image 7 of 40	1	very_global.png	7	very_specific.png	6	less_global.png	9	less_specific.png	8	reveal.png	5	0	0	0	0
1	testBlock	present_trial	9	39	yes_3	im0000282.jpg	N_1.png	1	N_2.png	2	N_3.png	3	N_4.png	4	Y_1.png	1	Y_2.png	2	Y_3.png	3	Y_4.png	4	response_G.png	3	response_S.png	4	Word 4 of 6	1	Image 7 of 40	1	very_global.png	7	very_specific.png	6	less_global.png	9	less_specific.png	8	reveal.png	5	sit	3	0	0
1	testBlock	centre_mouse	10	31	reveal	im0000282.jpg	N_1.png	1	N_2.png	2	N_3.png	3	N_4.png	4	Y_1.png	1	Y_2.png	2	Y_3.png	3	Y_4.png	4	response_G.png	3	response_S.png	4	Word 4 of 6	1	Image 7 of 40	1	very_global.png	7	very_specific.png	6	less_global.png	9	less_specific.png	8	reveal.png	5	0	0	0	0
1	testBlock	present_trial	11	51	no_4	im0000282.jpg	N_1.png	1	N_2.png	2	N_3.png	3	N_4.png	4	Y_1.png	1	Y_2.png	2	Y_3.png	3	Y_4.png	4	response_G.png	3	response_S.png	4	Word 5 of 6	1	Image 7 of 40	1	very_global.png	7	very_specific.png	6	less_global.png	9	less_specific.png	8	reveal.png	5	animal	5	0	0
1	testBlock	centre_mouse	12	46	reveal	im0000282.jpg	N_1.png	1	N_2.png	2	N_3.png	3	N_4.png	4	Y_1.png	1	Y_2.png	2	Y_3.png	3	Y_4.png	4	response_G.png	3	response_S.png	4	Word 5 of 6	1	Image 7 of 40	1	very_global.png	7	very_specific.png	6	less_global.png	9	less_specific.png	8	reveal.png	5	0	0	0	0
1	testBlock	present_trial	13	27	yes_1	im0000282.jpg	N_1.png	1	N_2.png	2	N_3.png	3	N_4.png	4	Y_1.png	1	Y_2.png	2	Y_3.png	3	Y_4.png	4	response_G.png	3	response_S.png	4	Word 6 of 6	1	Image 7 of 40	1	very_global.png	7	very_specific.png	6	less_global.png	9	less_specific.png	8	reveal.png	5	sheep	1	0	0
1	testBlock	centre_mouse	14	74	reveal	im0000282.jpg	N_1.png	1	N_2.png	2	N_3.png	3	N_4.png	4	Y_1.png	1	Y_2.png	2	Y_3.png	3	Y_4.png	4	response_G.png	3	response_S.png	4	Word 6 of 6	1	Image 7 of 40	1	very_global.png	7	very_specific.png	6	less_global.png	9	less_specific.png	8	reveal.png	5	0	0	0	0
1	testBlock	test	1	267	0	im0000282.jpg	+	1	im0000056.jpg	3	0	0	0	0	0	0	0	0	0	0	0	0	0	0	0	0	0	0	0	0	0	0	0	0	0	0	0	0	0	0	0	0	0	0
1	testBlock	centre_mouse	2	39	reveal	im0000282.jpg	N_1.png	1	N_2.png	2	N_3.png	3	N_4.png	4	Y_1.png	1	Y_2.png	2	Y_3.png	3	Y_4.png	4	response_G.png	3	response_S.png	4	Word 0 of 6	1	Image 8 of 40	1	very_global.png	7	very_specific.png	6	less_global.png	9	less_specific.png	8	reveal.png	5	0	0	0	0
1	testBlock	present_trial	3	38	yes_1	im0000056.jpg	N_1.png	1	N_2.png	2	N_3.png	3	N_4.png	4	Y_1.png	1	Y_2.png	2	Y_3.png	3	Y_4.png	4	response_G.png	3	response_S.png	4	Word 1 of 6	1	Image 8 of 40	1	very_global.png	7	very_specific.png	6	less_global.png	9	less_specific.png	8	reveal.png	5	city	5	0	0
1	testBlock	centre_mouse	4	27	reveal	im0000056.jpg	N_1.png	1	N_2.png	2	N_3.png	3	N_4.png	4	Y_1.png	1	Y_2.png	2	Y_3.png	3	Y_4.png	4	response_G.png	3	response_S.png	4	Word 1 of 6	1	Image 8 of 40	1	very_global.png	7	very_specific.png	6	less_global.png	9	less_specific.png	8	reveal.png	5	0	0	0	0
1	testBlock	present_trial	5	39	no_3	im0000056.jpg	N_1.png	1	N_2.png	2	N_3.png	3	N_4.png	4	Y_1.png	1	Y_2.png	2	Y_3.png	3	Y_4.png	4	response_G.png	3	response_S.png	4	Word 2 of 6	1	Image 8 of 40	1	very_global.png	7	very_specific.png	6	less_global.png	9	less_specific.png	8	reveal.png	5	water	2	0	0
1	testBlock	centre_mouse	6	37	reveal	im0000056.jpg	N_1.png	1	N_2.png	2	N_3.png	3	N_4.png	4	Y_1.png	1	Y_2.png	2	Y_3.png	3	Y_4.png	4	response_G.png	3	response_S.png	4	Word 2 of 6	1	Image 8 of 40	1	very_global.png	7	very_specific.png	6	less_global.png	9	less_specific.png	8	reveal.png	5	0	0	0	0
1	testBlock	present_trial	7	39	yes_1	im0000056.jpg	N_1.png	1	N_2.png	2	N_3.png	3	N_4.png	4	Y_1.png	1	Y_2.png	2	Y_3.png	3	Y_4.png	4	response_G.png	3	response_S.png	4	Word 3 of 6	1	Image 8 of 40	1	very_global.png	7	very_specific.png	6	less_global.png	9	less_specific.png	8	reveal.png	5	tree	1	0	0
1	testBlock	centre_mouse	8	44	reveal	im0000056.jpg	N_1.png	1	N_2.png	2	N_3.png	3	N_4.png	4	Y_1.png	1	Y_2.png	2	Y_3.png	3	Y_4.png	4	response_G.png	3	response_S.png	4	Word 3 of 6	1	Image 8 of 40	1	very_global.png	7	very_specific.png	6	less_global.png	9	less_specific.png	8	reveal.png	5	0	0	0	0
1	testBlock	present_trial	9	42	no_1	im0000056.jpg	N_1.png	1	N_2.png	2	N_3.png	3	N_4.png	4	Y_1.png	1	Y_2.png	2	Y_3.png	3	Y_4.png	4	response_G.png	3	response_S.png	4	Word 4 of 6	1	Image 8 of 40	1	very_global.png	7	very_specific.png	6	less_global.png	9	less_specific.png	8	reveal.png	5	daytime	3	0	0
1	testBlock	centre_mouse	10	52	reveal	im0000056.jpg	N_1.png	1	N_2.png	2	N_3.png	3	N_4.png	4	Y_1.png	1	Y_2.png	2	Y_3.png	3	Y_4.png	4	response_G.png	3	response_S.png	4	Word 4 of 6	1	Image 8 of 40	1	very_global.png	7	very_specific.png	6	less_global.png	9	less_specific.png	8	reveal.png	5	0	0	0	0
1	testBlock	present_trial	11	63	no_3	im0000056.jpg	N_1.png	1	N_2.png	2	N_3.png	3	N_4.png	4	Y_1.png	1	Y_2.png	2	Y_3.png	3	Y_4.png	4	response_G.png	3	response_S.png	4	Word 5 of 6	1	Image 8 of 40	1	very_global.png	7	very_specific.png	6	less_global.png	9	less_specific.png	8	reveal.png	5	skyline	6	0	0
1	testBlock	centre_mouse	12	38	reveal	im0000056.jpg	N_1.png	1	N_2.png	2	N_3.png	3	N_4.png	4	Y_1.png	1	Y_2.png	2	Y_3.png	3	Y_4.png	4	response_G.png	3	response_S.png	4	Word 5 of 6	1	Image 8 of 40	1	very_global.png	7	very_specific.png	6	less_global.png	9	less_specific.png	8	reveal.png	5	0	0	0	0
1	testBlock	present_trial	13	36	no_4	im0000056.jpg	N_1.png	1	N_2.png	2	N_3.png	3	N_4.png	4	Y_1.png	1	Y_2.png	2	Y_3.png	3	Y_4.png	4	response_G.png	3	response_S.png	4	Word 6 of 6	1	Image 8 of 40	1	very_global.png	7	very_specific.png	6	less_global.png	9	less_specific.png	8	reveal.png	5	people	4	0	0
1	testBlock	centre_mouse	14	72	reveal	im0000056.jpg	N_1.png	1	N_2.png	2	N_3.png	3	N_4.png	4	Y_1.png	1	Y_2.png	2	Y_3.png	3	Y_4.png	4	response_G.png	3	response_S.png	4	Word 6 of 6	1	Image 8 of 40	1	very_global.png	7	very_specific.png	6	less_global.png	9	less_specific.png	8	reveal.png	5	0	0	0	0
1	testBlock	test	1	267	0	im0000056.jpg	+	1	im0000097.jpg	8	0	0	0	0	0	0	0	0	0	0	0	0	0	0	0	0	0	0	0	0	0	0	0	0	0	0	0	0	0	0	0	0	0	0
1	testBlock	centre_mouse	2	63	reveal	im0000056.jpg	N_1.png	1	N_2.png	2	N_3.png	3	N_4.png	4	Y_1.png	1	Y_2.png	2	Y_3.png	3	Y_4.png	4	response_G.png	3	response_S.png	4	Word 0 of 6	1	Image 9 of 40	1	very_global.png	7	very_specific.png	6	less_global.png	9	less_specific.png	8	reveal.png	5	0	0	0	0
1	testBlock	present_trial	3	46	no_4	im0000097.jpg	N_1.png	1	N_2.png	2	N_3.png	3	N_4.png	4	Y_1.png	1	Y_2.png	2	Y_3.png	3	Y_4.png	4	response_G.png	3	response_S.png	4	Word 1 of 6	1	Image 9 of 40	1	very_global.png	7	very_specific.png	6	less_global.png	9	less_specific.png	8	reveal.png	5	lava	1	0	0
1	testBlock	centre_mouse	4	55	reveal	im0000097.jpg	N_1.png	1	N_2.png	2	N_3.png	3	N_4.png	4	Y_1.png	1	Y_2.png	2	Y_3.png	3	Y_4.png	4	response_G.png	3	response_S.png	4	Word 1 of 6	1	Image 9 of 40	1	very_global.png	7	very_specific.png	6	less_global.png	9	less_specific.png	8	reveal.png	5	0	0	0	0
1	testBlock	present_trial	5	45	yes_1	im0000097.jpg	N_1.png	1	N_2.png	2	N_3.png	3	N_4.png	4	Y_1.png	1	Y_2.png	2	Y_3.png	3	Y_4.png	4	response_G.png	3	response_S.png	4	Word 2 of 6	1	Image 9 of 40	1	very_global.png	7	very_specific.png	6	less_global.png	9	less_specific.png	8	reveal.png	5	plasma	6	0	0
1	testBlock	centre_mouse	6	52	reveal	im0000097.jpg	N_1.png	1	N_2.png	2	N_3.png	3	N_4.png	4	Y_1.png	1	Y_2.png	2	Y_3.png	3	Y_4.png	4	response_G.png	3	response_S.png	4	Word 2 of 6	1	Image 9 of 40	1	very_global.png	7	very_specific.png	6	less_global.png	9	less_specific.png	8	reveal.png	5	0	0	0	0
1	testBlock	present_trial	7	27	yes_2	im0000097.jpg	N_1.png	1	N_2.png	2	N_3.png	3	N_4.png	4	Y_1.png	1	Y_2.png	2	Y_3.png	3	Y_4.png	4	response_G.png	3	response_S.png	4	Word 3 of 6	1	Image 9 of 40	1	very_global.png	7	very_specific.png	6	less_global.png	9	less_specific.png	8	reveal.png	5	fire	2	0	0
1	testBlock	centre_mouse	8	33	reveal	im0000097.jpg	N_1.png	1	N_2.png	2	N_3.png	3	N_4.png	4	Y_1.png	1	Y_2.png	2	Y_3.png	3	Y_4.png	4	response_G.png	3	response_S.png	4	Word 3 of 6	1	Image 9 of 40	1	very_global.png	7	very_specific.png	6	less_global.png	9	less_specific.png	8	reveal.png	5	0	0	0	0
1	testBlock	present_trial	9	44	yes_2	im0000097.jpg	N_1.png	1	N_2.png	2	N_3.png	3	N_4.png	4	Y_1.png	1	Y_2.png	2	Y_3.png	3	Y_4.png	4	response_G.png	3	response_S.png	4	Word 4 of 6	1	Image 9 of 40	1	very_global.png	7	very_specific.png	6	less_global.png	9	less_specific.png	8	reveal.png	5	burn	3	0	0
1	testBlock	centre_mouse	10	41	reveal	im0000097.jpg	N_1.png	1	N_2.png	2	N_3.png	3	N_4.png	4	Y_1.png	1	Y_2.png	2	Y_3.png	3	Y_4.png	4	response_G.png	3	response_S.png	4	Word 4 of 6	1	Image 9 of 40	1	very_global.png	7	very_specific.png	6	less_global.png	9	less_specific.png	8	reveal.png	5	0	0	0	0
1	testBlock	present_trial	11	63	yes_1	im0000097.jpg	N_1.png	1	N_2.png	2	N_3.png	3	N_4.png	4	Y_1.png	1	Y_2.png	2	Y_3.png	3	Y_4.png	4	response_G.png	3	response_S.png	4	Word 5 of 6	1	Image 9 of 40	1	very_global.png	7	very_specific.png	6	less_global.png	9	less_specific.png	8	reveal.png	5	volcano	4	0	0
1	testBlock	centre_mouse	12	53	reveal	im0000097.jpg	N_1.png	1	N_2.png	2	N_3.png	3	N_4.png	4	Y_1.png	1	Y_2.png	2	Y_3.png	3	Y_4.png	4	response_G.png	3	response_S.png	4	Word 5 of 6	1	Image 9 of 40	1	very_global.png	7	very_specific.png	6	less_global.png	9	less_specific.png	8	reveal.png	5	0	0	0	0
1	testBlock	present_trial	13	41	yes_2	im0000097.jpg	N_1.png	1	N_2.png	2	N_3.png	3	N_4.png	4	Y_1.png	1	Y_2.png	2	Y_3.png	3	Y_4.png	4	response_G.png	3	response_S.png	4	Word 6 of 6	1	Image 9 of 40	1	very_global.png	7	very_specific.png	6	less_global.png	9	less_specific.png	8	reveal.png	5	flame	5	0	0
1	testBlock	centre_mouse	14	40	reveal	im0000097.jpg	N_1.png	1	N_2.png	2	N_3.png	3	N_4.png	4	Y_1.png	1	Y_2.png	2	Y_3.png	3	Y_4.png	4	response_G.png	3	response_S.png	4	Word 6 of 6	1	Image 9 of 40	1	very_global.png	7	very_specific.png	6	less_global.png	9	less_specific.png	8	reveal.png	5	0	0	0	0
1	testBlock	test	1	267	0	im0000097.jpg	+	1	im0000268.jpg	24	0	0	0	0	0	0	0	0	0	0	0	0	0	0	0	0	0	0	0	0	0	0	0	0	0	0	0	0	0	0	0	0	0	0
1	testBlock	centre_mouse	2	60	reveal	im0000097.jpg	N_1.png	1	N_2.png	2	N_3.png	3	N_4.png	4	Y_1.png	1	Y_2.png	2	Y_3.png	3	Y_4.png	4	response_G.png	3	response_S.png	4	Word 0 of 6	1	Image 10 of 40	1	very_global.png	7	very_specific.png	6	less_global.png	9	less_specific.png	8	reveal.png	5	0	0	0	0
1	testBlock	present_trial	3	52	no_3	im0000268.jpg	N_1.png	1	N_2.png	2	N_3.png	3	N_4.png	4	Y_1.png	1	Y_2.png	2	Y_3.png	3	Y_4.png	4	response_G.png	3	response_S.png	4	Word 1 of 6	1	Image 10 of 40	1	very_global.png	7	very_specific.png	6	less_global.png	9	less_specific.png	8	reveal.png	5	newspaper	2	0	0
1	testBlock	centre_mouse	4	43	reveal	im0000268.jpg	N_1.png	1	N_2.png	2	N_3.png	3	N_4.png	4	Y_1.png	1	Y_2.png	2	Y_3.png	3	Y_4.png	4	response_G.png	3	response_S.png	4	Word 1 of 6	1	Image 10 of 40	1	very_global.png	7	very_specific.png	6	less_global.png	9	less_specific.png	8	reveal.png	5	0	0	0	0
1	testBlock	present_trial	5	41	yes_1	im0000268.jpg	N_1.png	1	N_2.png	2	N_3.png	3	N_4.png	4	Y_1.png	1	Y_2.png	2	Y_3.png	3	Y_4.png	4	response_G.png	3	response_S.png	4	Word 2 of 6	1	Image 10 of 40	1	very_global.png	7	very_specific.png	6	less_global.png	9	less_specific.png	8	reveal.png	5	screen	6	0	0
1	testBlock	centre_mouse	6	43	reveal	im0000268.jpg	N_1.png	1	N_2.png	2	N_3.png	3	N_4.png	4	Y_1.png	1	Y_2.png	2	Y_3.png	3	Y_4.png	4	response_G.png	3	response_S.png	4	Word 2 of 6	1	Image 10 of 40	1	very_global.png	7	very_specific.png	6	less_global.png	9	less_specific.png	8	reveal.png	5	0	0	0	0
1	testBlock	present_trial	7	49	yes_1	im0000268.jpg	N_1.png	1	N_2.png	2	N_3.png	3	N_4.png	4	Y_1.png	1	Y_2.png	2	Y_3.png	3	Y_4.png	4	response_G.png	3	response_S.png	4	Word 3 of 6	1	Image 10 of 40	1	very_global.png	7	very_specific.png	6	less_global.png	9	less_specific.png	8	reveal.png	5	book	3	0	0
1	testBlock	centre_mouse	8	39	reveal	im0000268.jpg	N_1.png	1	N_2.png	2	N_3.png	3	N_4.png	4	Y_1.png	1	Y_2.png	2	Y_3.png	3	Y_4.png	4	response_G.png	3	response_S.png	4	Word 3 of 6	1	Image 10 of 40	1	very_global.png	7	very_specific.png	6	less_global.png	9	less_specific.png	8	reveal.png	5	0	0	0	0
1	testBlock	present_trial	9	55	yes_4	im0000268.jpg	N_1.png	1	N_2.png	2	N_3.png	3	N_4.png	4	Y_1.png	1	Y_2.png	2	Y_3.png	3	Y_4.png	4	response_G.png	3	response_S.png	4	Word 4 of 6	1	Image 10 of 40	1	very_global.png	7	very_specific.png	6	less_global.png	9	less_specific.png	8	reveal.png	5	white	4	0	0
1	testBlock	centre_mouse	10	67	reveal	im0000268.jpg	N_1.png	1	N_2.png	2	N_3.png	3	N_4.png	4	Y_1.png	1	Y_2.png	2	Y_3.png	3	Y_4.png	4	response_G.png	3	response_S.png	4	Word 4 of 6	1	Image 10 of 40	1	very_global.png	7	very_specific.png	6	less_global.png	9	less_specific.png	8	reveal.png	5	0	0	0	0
1	testBlock	present_trial	11	47	no_3	im0000268.jpg	N_1.png	1	N_2.png	2	N_3.png	3	N_4.png	4	Y_1.png	1	Y_2.png	2	Y_3.png	3	Y_4.png	4	response_G.png	3	response_S.png	4	Word 5 of 6	1	Image 10 of 40	1	very_global.png	7	very_specific.png	6	less_global.png	9	less_specific.png	8	reveal.png	5	write	5	0	0
1	testBlock	centre_mouse	12	46	reveal	im0000268.jpg	N_1.png	1	N_2.png	2	N_3.png	3	N_4.png	4	Y_1.png	1	Y_2.png	2	Y_3.png	3	Y_4.png	4	response_G.png	3	response_S.png	4	Word 5 of 6	1	Image 10 of 40	1	very_global.png	7	very_specific.png	6	less_global.png	9	less_specific.png	8	reveal.png	5	0	0	0	0
1	testBlock	present_trial	13	42	no_3	im0000268.jpg	N_1.png	1	N_2.png	2	N_3.png	3	N_4.png	4	Y_1.png	1	Y_2.png	2	Y_3.png	3	Y_4.png	4	response_G.png	3	response_S.png	4	Word 6 of 6	1	Image 10 of 40	1	very_global.png	7	very_specific.png	6	less_global.png	9	less_specific.png	8	reveal.png	5	type	1	0	0
1	testBlock	centre_mouse	14	90	reveal	im0000268.jpg	N_1.png	1	N_2.png	2	N_3.png	3	N_4.png	4	Y_1.png	1	Y_2.png	2	Y_3.png	3	Y_4.png	4	response_G.png	3	response_S.png	4	Word 6 of 6	1	Image 10 of 40	1	very_global.png	7	very_specific.png	6	less_global.png	9	less_specific.png	8	reveal.png	5	0	0	0	0
1	testBlock	test	1	267	0	im0000268.jpg	+	1	im0000126.jpg	12	0	0	0	0	0	0	0	0	0	0	0	0	0	0	0	0	0	0	0	0	0	0	0	0	0	0	0	0	0	0	0	0	0	0
1	testBlock	centre_mouse	2	56	reveal	im0000268.jpg	N_1.png	1	N_2.png	2	N_3.png	3	N_4.png	4	Y_1.png	1	Y_2.png	2	Y_3.png	3	Y_4.png	4	response_G.png	3	response_S.png	4	Word 0 of 6	1	Image 11 of 40	1	very_global.png	7	very_specific.png	6	less_global.png	9	less_specific.png	8	reveal.png	5	0	0	0	0
1	testBlock	present_trial	3	45	no_4	im0000126.jpg	N_1.png	1	N_2.png	2	N_3.png	3	N_4.png	4	Y_1.png	1	Y_2.png	2	Y_3.png	3	Y_4.png	4	response_G.png	3	response_S.png	4	Word 1 of 6	1	Image 11 of 40	1	very_global.png	7	very_specific.png	6	less_global.png	9	less_specific.png	8	reveal.png	5	paper	5	0	0
1	testBlock	centre_mouse	4	47	reveal	im0000126.jpg	N_1.png	1	N_2.png	2	N_3.png	3	N_4.png	4	Y_1.png	1	Y_2.png	2	Y_3.png	3	Y_4.png	4	response_G.png	3	response_S.png	4	Word 1 of 6	1	Image 11 of 40	1	very_global.png	7	very_specific.png	6	less_global.png	9	less_specific.png	8	reveal.png	5	0	0	0	0
1	testBlock	present_trial	5	24	yes_1	im0000126.jpg	N_1.png	1	N_2.png	2	N_3.png	3	N_4.png	4	Y_1.png	1	Y_2.png	2	Y_3.png	3	Y_4.png	4	response_G.png	3	response_S.png	4	Word 2 of 6	1	Image 11 of 40	1	very_global.png	7	very_specific.png	6	less_global.png	9	less_specific.png	8	reveal.png	5	girl	6	0	0
1	testBlock	centre_mouse	6	50	reveal	im0000126.jpg	N_1.png	1	N_2.png	2	N_3.png	3	N_4.png	4	Y_1.png	1	Y_2.png	2	Y_3.png	3	Y_4.png	4	response_G.png	3	response_S.png	4	Word 2 of 6	1	Image 11 of 40	1	very_global.png	7	very_specific.png	6	less_global.png	9	less_specific.png	8	reveal.png	5	0	0	0	0
1	testBlock	present_trial	7	41	yes_4	im0000126.jpg	N_1.png	1	N_2.png	2	N_3.png	3	N_4.png	4	Y_1.png	1	Y_2.png	2	Y_3.png	3	Y_4.png	4	response_G.png	3	response_S.png	4	Word 3 of 6	1	Image 11 of 40	1	very_global.png	7	very_specific.png	6	less_global.png	9	less_specific.png	8	reveal.png	5	write	4	0	0
1	testBlock	centre_mouse	8	38	reveal	im0000126.jpg	N_1.png	1	N_2.png	2	N_3.png	3	N_4.png	4	Y_1.png	1	Y_2.png	2	Y_3.png	3	Y_4.png	4	response_G.png	3	response_S.png	4	Word 3 of 6	1	Image 11 of 40	1	very_global.png	7	very_specific.png	6	less_global.png	9	less_specific.png	8	reveal.png	5	0	0	0	0
1	testBlock	present_trial	9	34	yes_3	im0000126.jpg	N_1.png	1	N_2.png	2	N_3.png	3	N_4.png	4	Y_1.png	1	Y_2.png	2	Y_3.png	3	Y_4.png	4	response_G.png	3	response_S.png	4	Word 4 of 6	1	Image 11 of 40	1	very_global.png	7	very_specific.png	6	less_global.png	9	less_specific.png	8	reveal.png	5	desk	3	0	0
1	testBlock	centre_mouse	10	54	reveal	im0000126.jpg	N_1.png	1	N_2.png	2	N_3.png	3	N_4.png	4	Y_1.png	1	Y_2.png	2	Y_3.png	3	Y_4.png	4	response_G.png	3	response_S.png	4	Word 4 of 6	1	Image 11 of 40	1	very_global.png	7	very_specific.png	6	less_global.png	9	less_specific.png	8	reveal.png	5	0	0	0	0
1	testBlock	present_trial	11	52	no_3	im0000126.jpg	N_1.png	1	N_2.png	2	N_3.png	3	N_4.png	4	Y_1.png	1	Y_2.png	2	Y_3.png	3	Y_4.png	4	response_G.png	3	response_S.png	4	Word 5 of 6	1	Image 11 of 40	1	very_global.png	7	very_specific.png	6	less_global.png	9	less_specific.png	8	reveal.png	5	study	1	0	0
1	testBlock	centre_mouse	12	33	reveal	im0000126.jpg	N_1.png	1	N_2.png	2	N_3.png	3	N_4.png	4	Y_1.png	1	Y_2.png	2	Y_3.png	3	Y_4.png	4	response_G.png	3	response_S.png	4	Word 5 of 6	1	Image 11 of 40	1	very_global.png	7	very_specific.png	6	less_global.png	9	less_specific.png	8	reveal.png	5	0	0	0	0
1	testBlock	present_trial	13	54	no_4	im0000126.jpg	N_1.png	1	N_2.png	2	N_3.png	3	N_4.png	4	Y_1.png	1	Y_2.png	2	Y_3.png	3	Y_4.png	4	response_G.png	3	response_S.png	4	Word 6 of 6	1	Image 11 of 40	1	very_global.png	7	very_specific.png	6	less_global.png	9	less_specific.png	8	reveal.png	5	pen	2	0	0
1	testBlock	centre_mouse	14	44	reveal	im0000126.jpg	N_1.png	1	N_2.png	2	N_3.png	3	N_4.png	4	Y_1.png	1	Y_2.png	2	Y_3.png	3	Y_4.png	4	response_G.png	3	response_S.png	4	Word 6 of 6	1	Image 11 of 40	1	very_global.png	7	very_specific.png	6	less_global.png	9	less_specific.png	8	reveal.png	5	0	0	0	0
1	testBlock	test	1	267	0	im0000126.jpg	+	1	im0000151.jpg	13	0	0	0	0	0	0	0	0	0	0	0	0	0	0	0	0	0	0	0	0	0	0	0	0	0	0	0	0	0	0	0	0	0	0
1	testBlock	centre_mouse	2	65	reveal	im0000126.jpg	N_1.png	1	N_2.png	2	N_3.png	3	N_4.png	4	Y_1.png	1	Y_2.png	2	Y_3.png	3	Y_4.png	4	response_G.png	3	response_S.png	4	Word 0 of 6	1	Image 12 of 40	1	very_global.png	7	very_specific.png	6	less_global.png	9	less_specific.png	8	reveal.png	5	0	0	0	0
1	testBlock	present_trial	3	71	yes_4	im0000151.jpg	N_1.png	1	N_2.png	2	N_3.png	3	N_4.png	4	Y_1.png	1	Y_2.png	2	Y_3.png	3	Y_4.png	4	response_G.png	3	response_S.png	4	Word 1 of 6	1	Image 12 of 40	1	very_global.png	7	very_specific.png	6	less_global.png	9	less_specific.png	8	reveal.png	5	religion	4	0	0
1	testBlock	centre_mouse	4	37	reveal	im0000151.jpg	N_1.png	1	N_2.png	2	N_3.png	3	N_4.png	4	Y_1.png	1	Y_2.png	2	Y_3.png	3	Y_4.png	4	response_G.png	3	response_S.png	4	Word 1 of 6	1	Image 12 of 40	1	very_global.png	7	very_specific.png	6	less_global.png	9	less_specific.png	8	reveal.png	5	0	0	0	0
1	testBlock	present_trial	5	52	no_2	im0000151.jpg	N_1.png	1	N_2.png	2	N_3.png	3	N_4.png	4	Y_1.png	1	Y_2.png	2	Y_3.png	3	Y_4.png	4	response_G.png	3	response_S.png	4	Word 2 of 6	1	Image 12 of 40	1	very_global.png	7	very_specific.png	6	less_global.png	9	less_specific.png	8	reveal.png	5	worship	6	0	0
1	testBlock	centre_mouse	6	42	reveal	im0000151.jpg	N_1.png	1	N_2.png	2	N_3.png	3	N_4.png	4	Y_1.png	1	Y_2.png	2	Y_3.png	3	Y_4.png	4	response_G.png	3	response_S.png	4	Word 2 of 6	1	Image 12 of 40	1	very_global.png	7	very_specific.png	6	less_global.png	9	less_specific.png	8	reveal.png	5	0	0	0	0
1	testBlock	present_trial	7	29	yes_4	im0000151.jpg	N_1.png	1	N_2.png	2	N_3.png	3	N_4.png	4	Y_1.png	1	Y_2.png	2	Y_3.png	3	Y_4.png	4	response_G.png	3	response_S.png	4	Word 3 of 6	1	Image 12 of 40	1	very_global.png	7	very_specific.png	6	less_global.png	9	less_specific.png	8	reveal.png	5	man	3	0	0
1	testBlock	centre_mouse	8	48	reveal	im0000151.jpg	N_1.png	1	N_2.png	2	N_3.png	3	N_4.png	4	Y_1.png	1	Y_2.png	2	Y_3.png	3	Y_4.png	4	response_G.png	3	response_S.png	4	Word 3 of 6	1	Image 12 of 40	1	very_global.png	7	very_specific.png	6	less_global.png	9	less_specific.png	8	reveal.png	5	0	0	0	0
1	testBlock	present_trial	9	38	yes_1	im0000151.jpg	N_1.png	1	N_2.png	2	N_3.png	3	N_4.png	4	Y_1.png	1	Y_2.png	2	Y_3.png	3	Y_4.png	4	response_G.png	3	response_S.png	4	Word 4 of 6	1	Image 12 of 40	1	very_global.png	7	very_specific.png	6	less_global.png	9	less_specific.png	8	reveal.png	5	pray	2	0	0
1	testBlock	centre_mouse	10	55	reveal	im0000151.jpg	N_1.png	1	N_2.png	2	N_3.png	3	N_4.png	4	Y_1.png	1	Y_2.png	2	Y_3.png	3	Y_4.png	4	response_G.png	3	response_S.png	4	Word 4 of 6	1	Image 12 of 40	1	very_global.png	7	very_specific.png	6	less_global.png	9	less_specific.png	8	reveal.png	5	0	0	0	0
1	testBlock	present_trial	11	37	no_1	im0000151.jpg	N_1.png	1	N_2.png	2	N_3.png	3	N_4.png	4	Y_1.png	1	Y_2.png	2	Y_3.png	3	Y_4.png	4	response_G.png	3	response_S.png	4	Word 5 of 6	1	Image 12 of 40	1	very_global.png	7	very_specific.png	6	less_global.png	9	less_specific.png	8	reveal.png	5	muslim	1	0	0
1	testBlock	centre_mouse	12	40	reveal	im0000151.jpg	N_1.png	1	N_2.png	2	N_3.png	3	N_4.png	4	Y_1.png	1	Y_2.png	2	Y_3.png	3	Y_4.png	4	response_G.png	3	response_S.png	4	Word 5 of 6	1	Image 12 of 40	1	very_global.png	7	very_specific.png	6	less_global.png	9	less_specific.png	8	reveal.png	5	0	0	0	0
1	testBlock	present_trial	13	34	no_2	im0000151.jpg	N_1.png	1	N_2.png	2	N_3.png	3	N_4.png	4	Y_1.png	1	Y_2.png	2	Y_3.png	3	Y_4.png	4	response_G.png	3	response_S.png	4	Word 6 of 6	1	Image 12 of 40	1	very_global.png	7	very_specific.png	6	less_global.png	9	less_specific.png	8	reveal.png	5	kneel	5	0	0
1	testBlock	centre_mouse	14	54	reveal	im0000151.jpg	N_1.png	1	N_2.png	2	N_3.png	3	N_4.png	4	Y_1.png	1	Y_2.png	2	Y_3.png	3	Y_4.png	4	response_G.png	3	response_S.png	4	Word 6 of 6	1	Image 12 of 40	1	very_global.png	7	very_specific.png	6	less_global.png	9	less_specific.png	8	reveal.png	5	0	0	0	0
1	testBlock	test	1	267	0	im0000151.jpg	+	1	im0000085.jpg	7	0	0	0	0	0	0	0	0	0	0	0	0	0	0	0	0	0	0	0	0	0	0	0	0	0	0	0	0	0	0	0	0	0	0
1	testBlock	centre_mouse	2	25	reveal	im0000151.jpg	N_1.png	1	N_2.png	2	N_3.png	3	N_4.png	4	Y_1.png	1	Y_2.png	2	Y_3.png	3	Y_4.png	4	response_G.png	3	response_S.png	4	Word 0 of 6	1	Image 13 of 40	1	very_global.png	7	very_specific.png	6	less_global.png	9	less_specific.png	8	reveal.png	5	0	0	0	0
1	testBlock	present_trial	3	46	yes_2	im0000085.jpg	N_1.png	1	N_2.png	2	N_3.png	3	N_4.png	4	Y_1.png	1	Y_2.png	2	Y_3.png	3	Y_4.png	4	response_G.png	3	response_S.png	4	Word 1 of 6	1	Image 13 of 40	1	very_global.png	7	very_specific.png	6	less_global.png	9	less_specific.png	8	reveal.png	5	sky	1	0	0
1	testBlock	centre_mouse	4	38	reveal	im0000085.jpg	N_1.png	1	N_2.png	2	N_3.png	3	N_4.png	4	Y_1.png	1	Y_2.png	2	Y_3.png	3	Y_4.png	4	response_G.png	3	response_S.png	4	Word 1 of 6	1	Image 13 of 40	1	very_global.png	7	very_specific.png	6	less_global.png	9	less_specific.png	8	reveal.png	5	0	0	0	0
1	testBlock	present_trial	5	40	yes_4	im0000085.jpg	N_1.png	1	N_2.png	2	N_3.png	3	N_4.png	4	Y_1.png	1	Y_2.png	2	Y_3.png	3	Y_4.png	4	response_G.png	3	response_S.png	4	Word 2 of 6	1	Image 13 of 40	1	very_global.png	7	very_specific.png	6	less_global.png	9	less_specific.png	8	reveal.png	5	satellite	2	0	0
1	testBlock	centre_mouse	6	49	reveal	im0000085.jpg	N_1.png	1	N_2.png	2	N_3.png	3	N_4.png	4	Y_1.png	1	Y_2.png	2	Y_3.png	3	Y_4.png	4	response_G.png	3	response_S.png	4	Word 2 of 6	1	Image 13 of 40	1	very_global.png	7	very_specific.png	6	less_global.png	9	less_specific.png	8	reveal.png	5	0	0	0	0
1	testBlock	present_trial	7	16	yes_2	im0000085.jpg	N_1.png	1	N_2.png	2	N_3.png	3	N_4.png	4	Y_1.png	1	Y_2.png	2	Y_3.png	3	Y_4.png	4	response_G.png	3	response_S.png	4	Word 3 of 6	1	Image 13 of 40	1	very_global.png	7	very_specific.png	6	less_global.png	9	less_specific.png	8	reveal.png	5	bright	3	0	0
1	testBlock	centre_mouse	8	26	reveal	im0000085.jpg	N_1.png	1	N_2.png	2	N_3.png	3	N_4.png	4	Y_1.png	1	Y_2.png	2	Y_3.png	3	Y_4.png	4	response_G.png	3	response_S.png	4	Word 3 of 6	1	Image 13 of 40	1	very_global.png	7	very_specific.png	6	less_global.png	9	less_specific.png	8	reveal.png	5	0	0	0	0
1	testBlock	present_trial	9	6	no_3	im0000085.jpg	N_1.png	1	N_2.png	2	N_3.png	3	N_4.png	4	Y_1.png	1	Y_2.png	2	Y_3.png	3	Y_4.png	4	response_G.png	3	response_S.png	4	Word 4 of 6	1	Image 13 of 40	1	very_global.png	7	very_specific.png	6	less_global.png	9	less_specific.png	8	reveal.png	5	sunny	4	0	0
1	testBlock	centre_mouse	10	44	reveal	im0000085.jpg	N_1.png	1	N_2.png	2	N_3.png	3	N_4.png	4	Y_1.png	1	Y_2.png	2	Y_3.png	3	Y_4.png	4	response_G.png	3	response_S.png	4	Word 4 of 6	1	Image 13 of 40	1	very_global.png	7	very_specific.png	6	less_global.png	9	less_specific.png	8	reveal.png	5	0	0	0	0
1	testBlock	present_trial	11	32	yes_2	im0000085.jpg	N_1.png	1	N_2.png	2	N_3.png	3	N_4.png	4	Y_1.png	1	Y_2.png	2	Y_3.png	3	Y_4.png	4	response_G.png	3	response_S.png	4	Word 5 of 6	1	Image 13 of 40	1	very_global.png	7	very_specific.png	6	less_global.png	9	less_specific.png	8	reveal.png	5	grass	6	0	0
1	testBlock	centre_mouse	12	40	reveal	im0000085.jpg	N_1.png	1	N_2.png	2	N_3.png	3	N_4.png	4	Y_1.png	1	Y_2.png	2	Y_3.png	3	Y_4.png	4	response_G.png	3	response_S.png	4	Word 5 of 6	1	Image 13 of 40	1	very_global.png	7	very_specific.png	6	less_global.png	9	less_specific.png	8	reveal.png	5	0	0	0	0
1	testBlock	present_trial	13	35	yes_4	im0000085.jpg	N_1.png	1	N_2.png	2	N_3.png	3	N_4.png	4	Y_1.png	1	Y_2.png	2	Y_3.png	3	Y_4.png	4	response_G.png	3	response_S.png	4	Word 6 of 6	1	Image 13 of 40	1	very_global.png	7	very_specific.png	6	less_global.png	9	less_specific.png	8	reveal.png	5	boat	5	0	0
1	testBlock	centre_mouse	14	34	reveal	im0000085.jpg	N_1.png	1	N_2.png	2	N_3.png	3	N_4.png	4	Y_1.png	1	Y_2.png	2	Y_3.png	3	Y_4.png	4	response_G.png	3	response_S.png	4	Word 6 of 6	1	Image 13 of 40	1	very_global.png	7	very_specific.png	6	less_global.png	9	less_specific.png	8	reveal.png	5	0	0	0	0
1	testBlock	test	1	267	0	im0000085.jpg	+	1	im0000332.jpg	32	0	0	0	0	0	0	0	0	0	0	0	0	0	0	0	0	0	0	0	0	0	0	0	0	0	0	0	0	0	0	0	0	0	0
1	testBlock	centre_mouse	2	40	reveal	im0000085.jpg	N_1.png	1	N_2.png	2	N_3.png	3	N_4.png	4	Y_1.png	1	Y_2.png	2	Y_3.png	3	Y_4.png	4	response_G.png	3	response_S.png	4	Word 0 of 6	1	Image 14 of 40	1	very_global.png	7	very_specific.png	6	less_global.png	9	less_specific.png	8	reveal.png	5	0	0	0	0
1	testBlock	present_trial	3	35	no_4	im0000332.jpg	N_1.png	1	N_2.png	2	N_3.png	3	N_4.png	4	Y_1.png	1	Y_2.png	2	Y_3.png	3	Y_4.png	4	response_G.png	3	response_S.png	4	Word 1 of 6	1	Image 14 of 40	1	very_global.png	7	very_specific.png	6	less_global.png	9	less_specific.png	8	reveal.png	5	people	5	0	0
1	testBlock	centre_mouse	4	62	reveal	im0000332.jpg	N_1.png	1	N_2.png	2	N_3.png	3	N_4.png	4	Y_1.png	1	Y_2.png	2	Y_3.png	3	Y_4.png	4	response_G.png	3	response_S.png	4	Word 1 of 6	1	Image 14 of 40	1	very_global.png	7	very_specific.png	6	less_global.png	9	less_specific.png	8	reveal.png	5	0	0	0	0
1	testBlock	present_trial	5	41	yes_4	im0000332.jpg	N_1.png	1	N_2.png	2	N_3.png	3	N_4.png	4	Y_1.png	1	Y_2.png	2	Y_3.png	3	Y_4.png	4	response_G.png	3	response_S.png	4	Word 2 of 6	1	Image 14 of 40	1	very_global.png	7	very_specific.png	6	less_global.png	9	less_specific.png	8	reveal.png	5	many	6	0	0
1	testBlock	centre_mouse	6	54	reveal	im0000332.jpg	N_1.png	1	N_2.png	2	N_3.png	3	N_4.png	4	Y_1.png	1	Y_2.png	2	Y_3.png	3	Y_4.png	4	response_G.png	3	response_S.png	4	Word 2 of 6	1	Image 14 of 40	1	very_global.png	7	very_specific.png	6	less_global.png	9	less_specific.png	8	reveal.png	5	0	0	0	0
1	testBlock	present_trial	7	43	yes_4	im0000332.jpg	N_1.png	1	N_2.png	2	N_3.png	3	N_4.png	4	Y_1.png	1	Y_2.png	2	Y_3.png	3	Y_4.png	4	response_G.png	3	response_S.png	4	Word 3 of 6	1	Image 14 of 40	1	very_global.png	7	very_specific.png	6	less_global.png	9	less_specific.png	8	reveal.png	5	shop	2	0	0
1	testBlock	centre_mouse	8	58	reveal	im0000332.jpg	N_1.png	1	N_2.png	2	N_3.png	3	N_4.png	4	Y_1.png	1	Y_2.png	2	Y_3.png	3	Y_4.png	4	response_G.png	3	response_S.png	4	Word 3 of 6	1	Image 14 of 40	1	very_global.png	7	very_specific.png	6	less_global.png	9	less_specific.png	8	reveal.png	5	0	0	0	0
1	testBlock	present_trial	9	44	no_1	im0000332.jpg	N_1.png	1	N_2.png	2	N_3.png	3	N_4.png	4	Y_1.png	1	Y_2.png	2	Y_3.png	3	Y_4.png	4	response_G.png	3	response_S.png	4	Word 4 of 6	1	Image 14 of 40	1	very_global.png	7	very_specific.png	6	less_global.png	9	less_specific.png	8	reveal.png	5	street	4	0	0
1	testBlock	centre_mouse	10	42	reveal	im0000332.jpg	N_1.png	1	N_2.png	2	N_3.png	3	N_4.png	4	Y_1.png	1	Y_2.png	2	Y_3.png	3	Y_4.png	4	response_G.png	3	response_S.png	4	Word 4 of 6	1	Image 14 of 40	1	very_global.png	7	very_specific.png	6	less_global.png	9	less_specific.png	8	reveal.png	5	0	0	0	0
1	testBlock	present_trial	11	52	yes_2	im0000332.jpg	N_1.png	1	N_2.png	2	N_3.png	3	N_4.png	4	Y_1.png	1	Y_2.png	2	Y_3.png	3	Y_4.png	4	response_G.png	3	response_S.png	4	Word 5 of 6	1	Image 14 of 40	1	very_global.png	7	very_specific.png	6	less_global.png	9	less_specific.png	8	reveal.png	5	indoor	3	0	0
1	testBlock	centre_mouse	12	40	reveal	im0000332.jpg	N_1.png	1	N_2.png	2	N_3.png	3	N_4.png	4	Y_1.png	1	Y_2.png	2	Y_3.png	3	Y_4.png	4	response_G.png	3	response_S.png	4	Word 5 of 6	1	Image 14 of 40	1	very_global.png	7	very_specific.png	6	less_global.png	9	less_specific.png	8	reveal.png	5	0	0	0	0
1	testBlock	present_trial	13	51	yes_2	im0000332.jpg	N_1.png	1	N_2.png	2	N_3.png	3	N_4.png	4	Y_1.png	1	Y_2.png	2	Y_3.png	3	Y_4.png	4	response_G.png	3	response_S.png	4	Word 6 of 6	1	Image 14 of 40	1	very_global.png	7	very_specific.png	6	less_global.png	9	less_specific.png	8	reveal.png	5	mall	1	0	0
1	testBlock	centre_mouse	14	55	reveal	im0000332.jpg	N_1.png	1	N_2.png	2	N_3.png	3	N_4.png	4	Y_1.png	1	Y_2.png	2	Y_3.png	3	Y_4.png	4	response_G.png	3	response_S.png	4	Word 6 of 6	1	Image 14 of 40	1	very_global.png	7	very_specific.png	6	less_global.png	9	less_specific.png	8	reveal.png	5	0	0	0	0
1	testBlock	test	1	267	0	im0000332.jpg	+	1	im0000205.jpg	16	0	0	0	0	0	0	0	0	0	0	0	0	0	0	0	0	0	0	0	0	0	0	0	0	0	0	0	0	0	0	0	0	0	0
1	testBlock	centre_mouse	2	41	reveal	im0000332.jpg	N_1.png	1	N_2.png	2	N_3.png	3	N_4.png	4	Y_1.png	1	Y_2.png	2	Y_3.png	3	Y_4.png	4	response_G.png	3	response_S.png	4	Word 0 of 6	1	Image 15 of 40	1	very_global.png	7	very_specific.png	6	less_global.png	9	less_specific.png	8	reveal.png	5	0	0	0	0
1	testBlock	present_trial	3	49	yes_3	im0000205.jpg	N_1.png	1	N_2.png	2	N_3.png	3	N_4.png	4	Y_1.png	1	Y_2.png	2	Y_3.png	3	Y_4.png	4	response_G.png	3	response_S.png	4	Word 1 of 6	1	Image 15 of 40	1	very_global.png	7	very_specific.png	6	less_global.png	9	less_specific.png	8	reveal.png	5	talk	2	0	0
1	testBlock	centre_mouse	4	40	reveal	im0000205.jpg	N_1.png	1	N_2.png	2	N_3.png	3	N_4.png	4	Y_1.png	1	Y_2.png	2	Y_3.png	3	Y_4.png	4	response_G.png	3	response_S.png	4	Word 1 of 6	1	Image 15 of 40	1	very_global.png	7	very_specific.png	6	less_global.png	9	less_specific.png	8	reveal.png	5	0	0	0	0
1	testBlock	present_trial	5	52	no_3	im0000205.jpg	N_1.png	1	N_2.png	2	N_3.png	3	N_4.png	4	Y_1.png	1	Y_2.png	2	Y_3.png	3	Y_4.png	4	response_G.png	3	response_S.png	4	Word 2 of 6	1	Image 15 of 40	1	very_global.png	7	very_specific.png	6	less_global.png	9	less_specific.png	8	reveal.png	5	people	1	0	0
1	testBlock	centre_mouse	6	55	reveal	im0000205.jpg	N_1.png	1	N_2.png	2	N_3.png	3	N_4.png	4	Y_1.png	1	Y_2.png	2	Y_3.png	3	Y_4.png	4	response_G.png	3	response_S.png	4	Word 2 of 6	1	Image 15 of 40	1	very_global.png	7	very_specific.png	6	less_global.png	9	less_specific.png	8	reveal.png	5	0	0	0	0
1	testBlock	present_trial	7	57	yes_1	im0000205.jpg	N_1.png	1	N_2.png	2	N_3.png	3	N_4.png	4	Y_1.png	1	Y_2.png	2	Y_3.png	3	Y_4.png	4	response_G.png	3	response_S.png	4	Word 3 of 6	1	Image 15 of 40	1	very_global.png	7	very_specific.png	6	less_global.png	9	less_specific.png	8	reveal.png	5	school	6	0	0
1	testBlock	centre_mouse	8	46	reveal	im0000205.jpg	N_1.png	1	N_2.png	2	N_3.png	3	N_4.png	4	Y_1.png	1	Y_2.png	2	Y_3.png	3	Y_4.png	4	response_G.png	3	response_S.png	4	Word 3 of 6	1	Image 15 of 40	1	very_global.png	7	very_specific.png	6	less_global.png	9	less_specific.png	8	reveal.png	5	0	0	0	0
1	testBlock	present_trial	9	33	yes_4	im0000205.jpg	N_1.png	1	N_2.png	2	N_3.png	3	N_4.png	4	Y_1.png	1	Y_2.png	2	Y_3.png	3	Y_4.png	4	response_G.png	3	response_S.png	4	Word 4 of 6	1	Image 15 of 40	1	very_global.png	7	very_specific.png	6	less_global.png	9	less_specific.png	8	reveal.png	5	stand	4	0	0
1	testBlock	centre_mouse	10	33	reveal	im0000205.jpg	N_1.png	1	N_2.png	2	N_3.png	3	N_4.png	4	Y_1.png	1	Y_2.png	2	Y_3.png	3	Y_4.png	4	response_G.png	3	response_S.png	4	Word 4 of 6	1	Image 15 of 40	1	very_global.png	7	very_specific.png	6	less_global.png	9	less_specific.png	8	reveal.png	5	0	0	0	0
1	testBlock	present_trial	11	44	yes_2	im0000205.jpg	N_1.png	1	N_2.png	2	N_3.png	3	N_4.png	4	Y_1.png	1	Y_2.png	2	Y_3.png	3	Y_4.png	4	response_G.png	3	response_S.png	4	Word 5 of 6	1	Image 15 of 40	1	very_global.png	7	very_specific.png	6	less_global.png	9	less_specific.png	8	reveal.png	5	speak	3	0	0
1	testBlock	centre_mouse	12	45	reveal	im0000205.jpg	N_1.png	1	N_2.png	2	N_3.png	3	N_4.png	4	Y_1.png	1	Y_2.png	2	Y_3.png	3	Y_4.png	4	response_G.png	3	response_S.png	4	Word 5 of 6	1	Image 15 of 40	1	very_global.png	7	very_specific.png	6	less_global.png	9	less_specific.png	8	reveal.png	5	0	0	0	0
1	testBlock	present_trial	13	40	yes_4	im0000205.jpg	N_1.png	1	N_2.png	2	N_3.png	3	N_4.png	4	Y_1.png	1	Y_2.png	2	Y_3.png	3	Y_4.png	4	response_G.png	3	response_S.png	4	Word 6 of 6	1	Image 15 of 40	1	very_global.png	7	very_specific.png	6	less_global.png	9	less_specific.png	8	reveal.png	5	boy	5	0	0
1	testBlock	centre_mouse	14	22	reveal	im0000205.jpg	N_1.png	1	N_2.png	2	N_3.png	3	N_4.png	4	Y_1.png	1	Y_2.png	2	Y_3.png	3	Y_4.png	4	response_G.png	3	response_S.png	4	Word 6 of 6	1	Image 15 of 40	1	very_global.png	7	very_specific.png	6	less_global.png	9	less_specific.png	8	reveal.png	5	0	0	0	0
1	testBlock	test	1	267	0	im0000205.jpg	+	1	im0000104.jpg	9	0	0	0	0	0	0	0	0	0	0	0	0	0	0	0	0	0	0	0	0	0	0	0	0	0	0	0	0	0	0	0	0	0	0
1	testBlock	centre_mouse	2	45	reveal	im0000205.jpg	N_1.png	1	N_2.png	2	N_3.png	3	N_4.png	4	Y_1.png	1	Y_2.png	2	Y_3.png	3	Y_4.png	4	response_G.png	3	response_S.png	4	Word 0 of 6	1	Image 16 of 40	1	very_global.png	7	very_specific.png	6	less_global.png	9	less_specific.png	8	reveal.png	5	0	0	0	0
1	testBlock	present_trial	3	56	yes_1	im0000104.jpg	N_1.png	1	N_2.png	2	N_3.png	3	N_4.png	4	Y_1.png	1	Y_2.png	2	Y_3.png	3	Y_4.png	4	response_G.png	3	response_S.png	4	Word 1 of 6	1	Image 16 of 40	1	very_global.png	7	very_specific.png	6	less_global.png	9	less_specific.png	8	reveal.png	5	goat	1	0	0
1	testBlock	centre_mouse	4	61	reveal	im0000104.jpg	N_1.png	1	N_2.png	2	N_3.png	3	N_4.png	4	Y_1.png	1	Y_2.png	2	Y_3.png	3	Y_4.png	4	response_G.png	3	response_S.png	4	Word 1 of 6	1	Image 16 of 40	1	very_global.png	7	very_specific.png	6	less_global.png	9	less_specific.png	8	reveal.png	5	0	0	0	0
1	testBlock	present_trial	5	40	yes_4	im0000104.jpg	N_1.png	1	N_2.png	2	N_3.png	3	N_4.png	4	Y_1.png	1	Y_2.png	2	Y_3.png	3	Y_4.png	4	response_G.png	3	response_S.png	4	Word 2 of 6	1	Image 16 of 40	1	very_global.png	7	very_specific.png	6	less_global.png	9	less_specific.png	8	reveal.png	5	farm	3	0	0
1	testBlock	centre_mouse	6	57	reveal	im0000104.jpg	N_1.png	1	N_2.png	2	N_3.png	3	N_4.png	4	Y_1.png	1	Y_2.png	2	Y_3.png	3	Y_4.png	4	response_G.png	3	response_S.png	4	Word 2 of 6	1	Image 16 of 40	1	very_global.png	7	very_specific.png	6	less_global.png	9	less_specific.png	8	reveal.png	5	0	0	0	0
1	testBlock	present_trial	7	23	yes_2	im0000104.jpg	N_1.png	1	N_2.png	2	N_3.png	3	N_4.png	4	Y_1.png	1	Y_2.png	2	Y_3.png	3	Y_4.png	4	response_G.png	3	response_S.png	4	Word 3 of 6	1	Image 16 of 40	1	very_global.png	7	very_specific.png	6	less_global.png	9	less_specific.png	8	reveal.png	5	sky	5	0	0
