subject	blockcode	trialcode	trialnum	latency	response	values.imageName	stimulusitem1	stimulusnumber1	stimulusitem2	stimulusnumber2	stimulusitem3	stimulusnumber3	stimulusitem4	stimulusnumber4	stimulusitem5	stimulusnumber5	stimulusitem6	stimulusnumber6	stimulusitem7	stimulusnumber7	stimulusitem8	stimulusnumber8	stimulusitem9	stimulusnumber9	stimulusitem10	stimulusnumber10	stimulusitem11	stimulusnumber11	stimulusitem12	stimulusnumber12	stimulusitem13	stimulusnumber13	stimulusitem14	stimulusnumber14	stimulusitem15	stimulusnumber15	stimulusitem16	stimulusnumber16	stimulusitem17	stimulusnumber17	stimulusitem18	stimulusnumber18	stimulusitem19	stimulusnumber19
1	reminder_practice	reminder_practice	1	1921	reveal	placeholder_image	Click the center square to proceed to the PRACTICE trials	1	reveal.png	5	0	0	0	0	0	0	0	0	0	0	0	0	0	0	0	0	0	0	0	0	0	0	0	0	0	0	0	0	0	0	0	0	0	0
1	practiceBlock	practice_trial	1	4517	yes_4	Picture1.jpg	Picture3.jpg	3	N_1.png	1	N_2.png	2	N_3.png	3	N_4.png	4	Y_1.png	1	Y_2.png	2	Y_3.png	3	Y_4.png	4	response_G.png	3	response_S.png	4	Word 1 of 6	1	Image 0 of 40	1	very_global.png	7	very_specific.png	6	less_global.png	9	less_specific.png	8	reveal.png	5	love	2
1	practiceBlock	centre_mouse	2	1067	reveal	Picture1.jpg	N_1.png	1	N_2.png	2	N_3.png	3	N_4.png	4	Y_1.png	1	Y_2.png	2	Y_3.png	3	Y_4.png	4	response_G.png	3	response_S.png	4	Word 1 of 6	1	Image 0 of 40	1	very_global.png	7	very_specific.png	6	less_global.png	9	less_specific.png	8	reveal.png	5	0	0	0	0
1	practiceBlock	practice_trial	3	866	yes_4	Picture3.jpg	Picture1.jpg	1	N_1.png	1	N_2.png	2	N_3.png	3	N_4.png	4	Y_1.png	1	Y_2.png	2	Y_3.png	3	Y_4.png	4	response_G.png	3	response_S.png	4	Word 2 of 6	1	Image 0 of 40	1	very_global.png	7	very_specific.png	6	less_global.png	9	less_specific.png	8	reveal.png	5	color	6
1	practiceBlock	centre_mouse	4	970	reveal	Picture3.jpg	N_1.png	1	N_2.png	2	N_3.png	3	N_4.png	4	Y_1.png	1	Y_2.png	2	Y_3.png	3	Y_4.png	4	response_G.png	3	response_S.png	4	Word 2 of 6	1	Image 0 of 40	1	very_global.png	7	very_specific.png	6	less_global.png	9	less_specific.png	8	reveal.png	5	0	0	0	0
1	practiceBlock	practice_trial	5	647	no_4	Picture1.jpg	Picture2.jpg	2	N_1.png	1	N_2.png	2	N_3.png	3	N_4.png	4	Y_1.png	1	Y_2.png	2	Y_3.png	3	Y_4.png	4	response_G.png	3	response_S.png	4	Word 3 of 6	1	Image 0 of 40	1	very_global.png	7	very_specific.png	6	less_global.png	9	less_specific.png	8	reveal.png	5	outline	5
1	practiceBlock	centre_mouse	6	681	reveal	Picture1.jpg	N_1.png	1	N_2.png	2	N_3.png	3	N_4.png	4	Y_1.png	1	Y_2.png	2	Y_3.png	3	Y_4.png	4	response_G.png	3	response_S.png	4	Word 3 of 6	1	Image 0 of 40	1	very_global.png	7	very_specific.png	6	less_global.png	9	less_specific.png	8	reveal.png	5	0	0	0	0
1	practiceBlock	practice_trial	7	510	yes_4	Picture2.jpg	Picture3.jpg	3	N_1.png	1	N_2.png	2	N_3.png	3	N_4.png	4	Y_1.png	1	Y_2.png	2	Y_3.png	3	Y_4.png	4	response_G.png	3	response_S.png	4	Word 4 of 6	1	Image 0 of 40	1	very_global.png	7	very_specific.png	6	less_global.png	9	less_specific.png	8	reveal.png	5	black	4
1	practiceBlock	centre_mouse	8	770	reveal	Picture2.jpg	N_1.png	1	N_2.png	2	N_3.png	3	N_4.png	4	Y_1.png	1	Y_2.png	2	Y_3.png	3	Y_4.png	4	response_G.png	3	response_S.png	4	Word 4 of 6	1	Image 0 of 40	1	very_global.png	7	very_specific.png	6	less_global.png	9	less_specific.png	8	reveal.png	5	0	0	0	0
1	practiceBlock	practice_trial	9	656	yes_4	Picture3.jpg	Picture1.jpg	1	N_1.png	1	N_2.png	2	N_3.png	3	N_4.png	4	Y_1.png	1	Y_2.png	2	Y_3.png	3	Y_4.png	4	response_G.png	3	response_S.png	4	Word 5 of 6	1	Image 0 of 40	1	very_global.png	7	very_specific.png	6	less_global.png	9	less_specific.png	8	reveal.png	5	red	3
1	practiceBlock	centre_mouse	10	773	reveal	Picture3.jpg	N_1.png	1	N_2.png	2	N_3.png	3	N_4.png	4	Y_1.png	1	Y_2.png	2	Y_3.png	3	Y_4.png	4	response_G.png	3	response_S.png	4	Word 5 of 6	1	Image 0 of 40	1	very_global.png	7	very_specific.png	6	less_global.png	9	less_specific.png	8	reveal.png	5	0	0	0	0
1	practiceBlock	practice_trial	11	610	yes_3	Picture1.jpg	Picture2.jpg	2	N_1.png	1	N_2.png	2	N_3.png	3	N_4.png	4	Y_1.png	1	Y_2.png	2	Y_3.png	3	Y_4.png	4	response_G.png	3	response_S.png	4	Word 6 of 6	1	Image 0 of 40	1	very_global.png	7	very_specific.png	6	less_global.png	9	less_specific.png	8	reveal.png	5	heart	1
1	practiceBlock	centre_mouse	12	613	reveal	Picture1.jpg	N_1.png	1	N_2.png	2	N_3.png	3	N_4.png	4	Y_1.png	1	Y_2.png	2	Y_3.png	3	Y_4.png	4	response_G.png	3	response_S.png	4	Word 6 of 6	1	Image 0 of 40	1	very_global.png	7	very_specific.png	6	less_global.png	9	less_specific.png	8	reveal.png	5	0	0	0	0
1	practiceBlock	practice_trial	1	1271	yes_4	Picture2.jpg	Picture3.jpg	3	N_1.png	1	N_2.png	2	N_3.png	3	N_4.png	4	Y_1.png	1	Y_2.png	2	Y_3.png	3	Y_4.png	4	response_G.png	3	response_S.png	4	Word 7 of 6	1	Image 0 of 40	1	very_global.png	7	very_specific.png	6	less_global.png	9	less_specific.png	8	reveal.png	5	emoji	6
1	practiceBlock	centre_mouse	2	862	reveal	Picture2.jpg	N_1.png	1	N_2.png	2	N_3.png	3	N_4.png	4	Y_1.png	1	Y_2.png	2	Y_3.png	3	Y_4.png	4	response_G.png	3	response_S.png	4	Word 7 of 6	1	Image 0 of 40	1	very_global.png	7	very_specific.png	6	less_global.png	9	less_specific.png	8	reveal.png	5	0	0	0	0
1	practiceBlock	practice_trial	3	591	yes_4	Picture3.jpg	Picture2.jpg	2	N_1.png	1	N_2.png	2	N_3.png	3	N_4.png	4	Y_1.png	1	Y_2.png	2	Y_3.png	3	Y_4.png	4	response_G.png	3	response_S.png	4	Word 8 of 6	1	Image 0 of 40	1	very_global.png	7	very_specific.png	6	less_global.png	9	less_specific.png	8	reveal.png	5	eyes	3
1	practiceBlock	centre_mouse	4	1355	reveal	Picture3.jpg	N_1.png	1	N_2.png	2	N_3.png	3	N_4.png	4	Y_1.png	1	Y_2.png	2	Y_3.png	3	Y_4.png	4	response_G.png	3	response_S.png	4	Word 8 of 6	1	Image 0 of 40	1	very_global.png	7	very_specific.png	6	less_global.png	9	less_specific.png	8	reveal.png	5	0	0	0	0
1	practiceBlock	practice_trial	5	534	no_4	Picture2.jpg	Picture1.jpg	1	N_1.png	1	N_2.png	2	N_3.png	3	N_4.png	4	Y_1.png	1	Y_2.png	2	Y_3.png	3	Y_4.png	4	response_G.png	3	response_S.png	4	Word 9 of 6	1	Image 0 of 40	1	very_global.png	7	very_specific.png	6	less_global.png	9	less_specific.png	8	reveal.png	5	yellow	2
1	practiceBlock	centre_mouse	6	836	reveal	Picture2.jpg	N_1.png	1	N_2.png	2	N_3.png	3	N_4.png	4	Y_1.png	1	Y_2.png	2	Y_3.png	3	Y_4.png	4	response_G.png	3	response_S.png	4	Word 9 of 6	1	Image 0 of 40	1	very_global.png	7	very_specific.png	6	less_global.png	9	less_specific.png	8	reveal.png	5	0	0	0	0
1	practiceBlock	practice_trial	7	522	yes_4	Picture1.jpg	Picture3.jpg	3	N_1.png	1	N_2.png	2	N_3.png	3	N_4.png	4	Y_1.png	1	Y_2.png	2	Y_3.png	3	Y_4.png	4	response_G.png	3	response_S.png	4	Word 10 of 6	1	Image 0 of 40	1	very_global.png	7	very_specific.png	6	less_global.png	9	less_specific.png	8	reveal.png	5	smile	4
1	practiceBlock	centre_mouse	8	674	reveal	Picture1.jpg	N_1.png	1	N_2.png	2	N_3.png	3	N_4.png	4	Y_1.png	1	Y_2.png	2	Y_3.png	3	Y_4.png	4	response_G.png	3	response_S.png	4	Word 10 of 6	1	Image 0 of 40	1	very_global.png	7	very_specific.png	6	less_global.png	9	less_specific.png	8	reveal.png	5	0	0	0	0
1	practiceBlock	practice_trial	9	504	yes_4	Picture3.jpg	Picture2.jpg	2	N_1.png	1	N_2.png	2	N_3.png	3	N_4.png	4	Y_1.png	1	Y_2.png	2	Y_3.png	3	Y_4.png	4	response_G.png	3	response_S.png	4	Word 11 of 6	1	Image 0 of 40	1	very_global.png	7	very_specific.png	6	less_global.png	9	less_specific.png	8	reveal.png	5	happy	5
1	practiceBlock	centre_mouse	10	633	reveal	Picture3.jpg	N_1.png	1	N_2.png	2	N_3.png	3	N_4.png	4	Y_1.png	1	Y_2.png	2	Y_3.png	3	Y_4.png	4	response_G.png	3	response_S.png	4	Word 11 of 6	1	Image 0 of 40	1	very_global.png	7	very_specific.png	6	less_global.png	9	less_specific.png	8	reveal.png	5	0	0	0	0
1	practiceBlock	practice_trial	11	546	yes_4	Picture2.jpg	Picture1.jpg	1	N_1.png	1	N_2.png	2	N_3.png	3	N_4.png	4	Y_1.png	1	Y_2.png	2	Y_3.png	3	Y_4.png	4	response_G.png	3	response_S.png	4	Word 12 of 6	1	Image 0 of 40	1	very_global.png	7	very_specific.png	6	less_global.png	9	less_specific.png	8	reveal.png	5	face	1
1	practiceBlock	centre_mouse	12	763	reveal	Picture2.jpg	N_1.png	1	N_2.png	2	N_3.png	3	N_4.png	4	Y_1.png	1	Y_2.png	2	Y_3.png	3	Y_4.png	4	response_G.png	3	response_S.png	4	Word 12 of 6	1	Image 0 of 40	1	very_global.png	7	very_specific.png	6	less_global.png	9	less_specific.png	8	reveal.png	5	0	0	0	0
1	practiceBlock	practice_trial	1	1196	yes_4	Picture1.jpg	Picture3.jpg	3	N_1.png	1	N_2.png	2	N_3.png	3	N_4.png	4	Y_1.png	1	Y_2.png	2	Y_3.png	3	Y_4.png	4	response_G.png	3	response_S.png	4	Word 13 of 6	1	Image 0 of 40	1	very_global.png	7	very_specific.png	6	less_global.png	9	less_specific.png	8	reveal.png	5	red	3
1	practiceBlock	centre_mouse	2	1055	reveal	Picture1.jpg	N_1.png	1	N_2.png	2	N_3.png	3	N_4.png	4	Y_1.png	1	Y_2.png	2	Y_3.png	3	Y_4.png	4	response_G.png	3	response_S.png	4	Word 13 of 6	1	Image 0 of 40	1	very_global.png	7	very_specific.png	6	less_global.png	9	less_specific.png	8	reveal.png	5	0	0	0	0
1	practiceBlock	practice_trial	3	926	yes_4	Picture3.jpg	Picture1.jpg	1	N_1.png	1	N_2.png	2	N_3.png	3	N_4.png	4	Y_1.png	1	Y_2.png	2	Y_3.png	3	Y_4.png	4	response_G.png	3	response_S.png	4	Word 14 of 6	1	Image 0 of 40	1	very_global.png	7	very_specific.png	6	less_global.png	9	less_specific.png	8	reveal.png	5	color	6
1	practiceBlock	centre_mouse	4	679	reveal	Picture3.jpg	N_1.png	1	N_2.png	2	N_3.png	3	N_4.png	4	Y_1.png	1	Y_2.png	2	Y_3.png	3	Y_4.png	4	response_G.png	3	response_S.png	4	Word 14 of 6	1	Image 0 of 40	1	very_global.png	7	very_specific.png	6	less_global.png	9	less_specific.png	8	reveal.png	5	0	0	0	0
1	practiceBlock	practice_trial	5	582	yes_4	Picture1.jpg	Picture2.jpg	2	N_1.png	1	N_2.png	2	N_3.png	3	N_4.png	4	Y_1.png	1	Y_2.png	2	Y_3.png	3	Y_4.png	4	response_G.png	3	response_S.png	4	Word 15 of 6	1	Image 0 of 40	1	very_global.png	7	very_specific.png	6	less_global.png	9	less_specific.png	8	reveal.png	5	outline	5
1	practiceBlock	centre_mouse	6	726	reveal	Picture1.jpg	N_1.png	1	N_2.png	2	N_3.png	3	N_4.png	4	Y_1.png	1	Y_2.png	2	Y_3.png	3	Y_4.png	4	response_G.png	3	response_S.png	4	Word 15 of 6	1	Image 0 of 40	1	very_global.png	7	very_specific.png	6	less_global.png	9	less_specific.png	8	reveal.png	5	0	0	0	0
1	practiceBlock	practice_trial	7	484	yes_4	Picture2.jpg	Picture2.jpg	2	N_1.png	1	N_2.png	2	N_3.png	3	N_4.png	4	Y_1.png	1	Y_2.png	2	Y_3.png	3	Y_4.png	4	response_G.png	3	response_S.png	4	Word 16 of 6	1	Image 0 of 40	1	very_global.png	7	very_specific.png	6	less_global.png	9	less_specific.png	8	reveal.png	5	love	2
1	practiceBlock	centre_mouse	8	572	reveal	Picture2.jpg	N_1.png	1	N_2.png	2	N_3.png	3	N_4.png	4	Y_1.png	1	Y_2.png	2	Y_3.png	3	Y_4.png	4	response_G.png	3	response_S.png	4	Word 16 of 6	1	Image 0 of 40	1	very_global.png	7	very_specific.png	6	less_global.png	9	less_specific.png	8	reveal.png	5	0	0	0	0
1	practiceBlock	practice_trial	9	591	yes_4	Picture2.jpg	Picture1.jpg	1	N_1.png	1	N_2.png	2	N_3.png	3	N_4.png	4	Y_1.png	1	Y_2.png	2	Y_3.png	3	Y_4.png	4	response_G.png	3	response_S.png	4	Word 17 of 6	1	Image 0 of 40	1	very_global.png	7	very_specific.png	6	less_global.png	9	less_specific.png	8	reveal.png	5	heart	1
1	practiceBlock	centre_mouse	10	630	reveal	Picture2.jpg	N_1.png	1	N_2.png	2	N_3.png	3	N_4.png	4	Y_1.png	1	Y_2.png	2	Y_3.png	3	Y_4.png	4	response_G.png	3	response_S.png	4	Word 17 of 6	1	Image 0 of 40	1	very_global.png	7	very_specific.png	6	less_global.png	9	less_specific.png	8	reveal.png	5	0	0	0	0
1	practiceBlock	practice_trial	11	567	yes_4	Picture1.jpg	Picture3.jpg	3	N_1.png	1	N_2.png	2	N_3.png	3	N_4.png	4	Y_1.png	1	Y_2.png	2	Y_3.png	3	Y_4.png	4	response_G.png	3	response_S.png	4	Word 18 of 6	1	Image 0 of 40	1	very_global.png	7	very_specific.png	6	less_global.png	9	less_specific.png	8	reveal.png	5	black	4
1	practiceBlock	centre_mouse	12	726	reveal	Picture1.jpg	N_1.png	1	N_2.png	2	N_3.png	3	N_4.png	4	Y_1.png	1	Y_2.png	2	Y_3.png	3	Y_4.png	4	response_G.png	3	response_S.png	4	Word 18 of 6	1	Image 0 of 40	1	very_global.png	7	very_specific.png	6	less_global.png	9	less_specific.png	8	reveal.png	5	0	0	0	0
1	reset	reset	1	200	0	Picture1.jpg	0	0	0	0	0	0	0	0	0	0	0	0	0	0	0	0	0	0	0	0	0	0	0	0	0	0	0	0	0	0	0	0	0	0	0	0	0	0
1	reminder_start	reminder_start	1	1063	reveal	Picture1.jpg	Click the center square to proceed to the REAL trials	1	reveal.png	5	0	0	0	0	0	0	0	0	0	0	0	0	0	0	0	0	0	0	0	0	0	0	0	0	0	0	0	0	0	0	0	0	0	0
1	testBlock	present_trial	1	1379	yes_4	im0000041.jpg	im0000097.jpg	8	N_1.png	1	N_2.png	2	N_3.png	3	N_4.png	4	Y_1.png	1	Y_2.png	2	Y_3.png	3	Y_4.png	4	response_G.png	3	response_S.png	4	Word 1 of 6	1	Image 1 of 40	1	very_global.png	7	very_specific.png	6	less_global.png	9	less_specific.png	8	reveal.png	5	sunny	5
1	testBlock	centre_mouse	2	583	reveal	im0000041.jpg	N_1.png	1	N_2.png	2	N_3.png	3	N_4.png	4	Y_1.png	1	Y_2.png	2	Y_3.png	3	Y_4.png	4	response_G.png	3	response_S.png	4	Word 1 of 6	1	Image 1 of 40	1	very_global.png	7	very_specific.png	6	less_global.png	9	less_specific.png	8	reveal.png	5	0	0	0	0
1	testBlock	present_trial	3	684	yes_4	im0000097.jpg	im0000261.jpg	23	N_1.png	1	N_2.png	2	N_3.png	3	N_4.png	4	Y_1.png	1	Y_2.png	2	Y_3.png	3	Y_4.png	4	response_G.png	3	response_S.png	4	Word 2 of 6	1	Image 2 of 40	1	very_global.png	7	very_specific.png	6	less_global.png	9	less_specific.png	8	reveal.png	5	horse	4
1	testBlock	centre_mouse	4	802	reveal	im0000097.jpg	N_1.png	1	N_2.png	2	N_3.png	3	N_4.png	4	Y_1.png	1	Y_2.png	2	Y_3.png	3	Y_4.png	4	response_G.png	3	response_S.png	4	Word 2 of 6	1	Image 2 of 40	1	very_global.png	7	very_specific.png	6	less_global.png	9	less_specific.png	8	reveal.png	5	0	0	0	0
1	testBlock	present_trial	5	564	no_4	im0000261.jpg	im0000333.jpg	33	N_1.png	1	N_2.png	2	N_3.png	3	N_4.png	4	Y_1.png	1	Y_2.png	2	Y_3.png	3	Y_4.png	4	response_G.png	3	response_S.png	4	Word 3 of 6	1	Image 3 of 40	1	very_global.png	7	very_specific.png	6	less_global.png	9	less_specific.png	8	reveal.png	5	farm	2
1	testBlock	centre_mouse	6	707	reveal	im0000261.jpg	N_1.png	1	N_2.png	2	N_3.png	3	N_4.png	4	Y_1.png	1	Y_2.png	2	Y_3.png	3	Y_4.png	4	response_G.png	3	response_S.png	4	Word 3 of 6	1	Image 3 of 40	1	very_global.png	7	very_specific.png	6	less_global.png	9	less_specific.png	8	reveal.png	5	0	0	0	0
1	testBlock	present_trial	7	835	yes_4	im0000333.jpg	im0000308.jpg	29	N_1.png	1	N_2.png	2	N_3.png	3	N_4.png	4	Y_1.png	1	Y_2.png	2	Y_3.png	3	Y_4.png	4	response_G.png	3	response_S.png	4	Word 4 of 6	1	Image 4 of 40	1	very_global.png	7	very_specific.png	6	less_global.png	9	less_specific.png	8	reveal.png	5	cow	1
1	testBlock	centre_mouse	8	672	reveal	im0000333.jpg	N_1.png	1	N_2.png	2	N_3.png	3	N_4.png	4	Y_1.png	1	Y_2.png	2	Y_3.png	3	Y_4.png	4	response_G.png	3	response_S.png	4	Word 4 of 6	1	Image 4 of 40	1	very_global.png	7	very_specific.png	6	less_global.png	9	less_specific.png	8	reveal.png	5	0	0	0	0
1	testBlock	present_trial	9	608	yes_4	im0000308.jpg	im0000109.jpg	10	N_1.png	1	N_2.png	2	N_3.png	3	N_4.png	4	Y_1.png	1	Y_2.png	2	Y_3.png	3	Y_4.png	4	response_G.png	3	response_S.png	4	Word 5 of 6	1	Image 5 of 40	1	very_global.png	7	very_specific.png	6	less_global.png	9	less_specific.png	8	reveal.png	5	pasture	3
1	testBlock	centre_mouse	10	735	reveal	im0000308.jpg	N_1.png	1	N_2.png	2	N_3.png	3	N_4.png	4	Y_1.png	1	Y_2.png	2	Y_3.png	3	Y_4.png	4	response_G.png	3	response_S.png	4	Word 5 of 6	1	Image 5 of 40	1	very_global.png	7	very_specific.png	6	less_global.png	9	less_specific.png	8	reveal.png	5	0	0	0	0
1	testBlock	present_trial	11	760	yes_4	im0000109.jpg	im0000268.jpg	24	N_1.png	1	N_2.png	2	N_3.png	3	N_4.png	4	Y_1.png	1	Y_2.png	2	Y_3.png	3	Y_4.png	4	response_G.png	3	response_S.png	4	Word 6 of 6	1	Image 6 of 40	1	very_global.png	7	very_specific.png	6	less_global.png	9	less_specific.png	8	reveal.png	5	green	6
1	testBlock	centre_mouse	12	785	reveal	im0000109.jpg	N_1.png	1	N_2.png	2	N_3.png	3	N_4.png	4	Y_1.png	1	Y_2.png	2	Y_3.png	3	Y_4.png	4	response_G.png	3	response_S.png	4	Word 6 of 6	1	Image 6 of 40	1	very_global.png	7	very_specific.png	6	less_global.png	9	less_specific.png	8	reveal.png	5	0	0	0	0
1	testBlock	present_trial	1	1765	yes_4	im0000268.jpg	im0000205.jpg	16	N_1.png	1	N_2.png	2	N_3.png	3	N_4.png	4	Y_1.png	1	Y_2.png	2	Y_3.png	3	Y_4.png	4	response_G.png	3	response_S.png	4	Word 7 of 6	1	Image 7 of 40	1	very_global.png	7	very_specific.png	6	less_global.png	9	less_specific.png	8	reveal.png	5	white	4
1	testBlock	centre_mouse	2	1664	Ctrl+'Q'	im0000268.jpg	N_1.png	1	N_2.png	2	N_3.png	3	N_4.png	4	Y_1.png	1	Y_2.png	2	Y_3.png	3	Y_4.png	4	response_G.png	3	response_S.png	4	Word 7 of 6	1	Image 7 of 40	1	very_global.png	7	very_specific.png	6	less_global.png	9	less_specific.png	8	reveal.png	5	0	0	0	0
1	reminder_practice	reminder_practice	1	40	reveal	placeholder_image	Click the center square to proceed to the PRACTICE trials	1	reveal.png	5	0	0	0	0	0	0	0	0	0	0	0	0	0	0	0	0	0	0	0	0	0	0	0	0	0	0	0	0	0	0	0	0	0	0
1	practiceBlock	practice_trial	1	64	no_3	Picture1.jpg	Picture3.jpg	3	N_1.png	1	N_2.png	2	N_3.png	3	N_4.png	4	Y_1.png	1	Y_2.png	2	Y_3.png	3	Y_4.png	4	response_G.png	3	response_S.png	4	Word 1 of 6	1	Image 0 of 40	1	very_global.png	7	very_specific.png	6	less_global.png	9	less_specific.png	8	reveal.png	5	heart	1
1	practiceBlock	centre_mouse	2	54	reveal	Picture1.jpg	N_1.png	1	N_2.png	2	N_3.png	3	N_4.png	4	Y_1.png	1	Y_2.png	2	Y_3.png	3	Y_4.png	4	response_G.png	3	response_S.png	4	Word 1 of 6	1	Image 0 of 40	1	very_global.png	7	very_specific.png	6	less_global.png	9	less_specific.png	8	reveal.png	5	0	0	0	0
1	practiceBlock	practice_trial	3	40	yes_2	Picture3.jpg	Picture1.jpg	1	N_1.png	1	N_2.png	2	N_3.png	3	N_4.png	4	Y_1.png	1	Y_2.png	2	Y_3.png	3	Y_4.png	4	response_G.png	3	response_S.png	4	Word 2 of 6	1	Image 0 of 40	1	very_global.png	7	very_specific.png	6	less_global.png	9	less_specific.png	8	reveal.png	5	color	6
1	practiceBlock	centre_mouse	4	62	reveal	Picture3.jpg	N_1.png	1	N_2.png	2	N_3.png	3	N_4.png	4	Y_1.png	1	Y_2.png	2	Y_3.png	3	Y_4.png	4	response_G.png	3	response_S.png	4	Word 2 of 6	1	Image 0 of 40	1	very_global.png	7	very_specific.png	6	less_global.png	9	less_specific.png	8	reveal.png	5	0	0	0	0
1	practiceBlock	practice_trial	5	24	no_2	Picture1.jpg	Picture2.jpg	2	N_1.png	1	N_2.png	2	N_3.png	3	N_4.png	4	Y_1.png	1	Y_2.png	2	Y_3.png	3	Y_4.png	4	response_G.png	3	response_S.png	4	Word 3 of 6	1	Image 0 of 40	1	very_global.png	7	very_specific.png	6	less_global.png	9	less_specific.png	8	reveal.png	5	black	4
1	practiceBlock	centre_mouse	6	73	reveal	Picture1.jpg	N_1.png	1	N_2.png	2	N_3.png	3	N_4.png	4	Y_1.png	1	Y_2.png	2	Y_3.png	3	Y_4.png	4	response_G.png	3	response_S.png	4	Word 3 of 6	1	Image 0 of 40	1	very_global.png	7	very_specific.png	6	less_global.png	9	less_specific.png	8	reveal.png	5	0	0	0	0
1	practiceBlock	practice_trial	7	36	yes_2	Picture2.jpg	Picture2.jpg	2	N_1.png	1	N_2.png	2	N_3.png	3	N_4.png	4	Y_1.png	1	Y_2.png	2	Y_3.png	3	Y_4.png	4	response_G.png	3	response_S.png	4	Word 4 of 6	1	Image 0 of 40	1	very_global.png	7	very_specific.png	6	less_global.png	9	less_specific.png	8	reveal.png	5	red	3
1	practiceBlock	centre_mouse	8	55	reveal	Picture2.jpg	N_1.png	1	N_2.png	2	N_3.png	3	N_4.png	4	Y_1.png	1	Y_2.png	2	Y_3.png	3	Y_4.png	4	response_G.png	3	response_S.png	4	Word 4 of 6	1	Image 0 of 40	1	very_global.png	7	very_specific.png	6	less_global.png	9	less_specific.png	8	reveal.png	5	0	0	0	0
1	practiceBlock	practice_trial	9	29	no_3	Picture2.jpg	Picture3.jpg	3	N_1.png	1	N_2.png	2	N_3.png	3	N_4.png	4	Y_1.png	1	Y_2.png	2	Y_3.png	3	Y_4.png	4	response_G.png	3	response_S.png	4	Word 5 of 6	1	Image 0 of 40	1	very_global.png	7	very_specific.png	6	less_global.png	9	less_specific.png	8	reveal.png	5	love	2
1	practiceBlock	centre_mouse	10	51	reveal	Picture2.jpg	N_1.png	1	N_2.png	2	N_3.png	3	N_4.png	4	Y_1.png	1	Y_2.png	2	Y_3.png	3	Y_4.png	4	response_G.png	3	response_S.png	4	Word 5 of 6	1	Image 0 of 40	1	very_global.png	7	very_specific.png	6	less_global.png	9	less_specific.png	8	reveal.png	5	0	0	0	0
1	practiceBlock	practice_trial	11	21	yes_1	Picture3.jpg	Picture1.jpg	1	N_1.png	1	N_2.png	2	N_3.png	3	N_4.png	4	Y_1.png	1	Y_2.png	2	Y_3.png	3	Y_4.png	4	response_G.png	3	response_S.png	4	Word 6 of 6	1	Image 0 of 40	1	very_global.png	7	very_specific.png	6	less_global.png	9	less_specific.png	8	reveal.png	5	outline	5
1	practiceBlock	centre_mouse	12	59	reveal	Picture3.jpg	N_1.png	1	N_2.png	2	N_3.png	3	N_4.png	4	Y_1.png	1	Y_2.png	2	Y_3.png	3	Y_4.png	4	response_G.png	3	response_S.png	4	Word 6 of 6	1	Image 0 of 40	1	very_global.png	7	very_specific.png	6	less_global.png	9	less_specific.png	8	reveal.png	5	0	0	0	0
1	practiceBlock	practice_trial	1	28	no_3	Picture1.jpg	Picture3.jpg	3	N_1.png	1	N_2.png	2	N_3.png	3	N_4.png	4	Y_1.png	1	Y_2.png	2	Y_3.png	3	Y_4.png	4	response_G.png	3	response_S.png	4	Word 7 of 6	1	Image 0 of 40	1	very_global.png	7	very_specific.png	6	less_global.png	9	less_specific.png	8	reveal.png	5	heart	1
1	practiceBlock	centre_mouse	2	33	reveal	Picture1.jpg	N_1.png	1	N_2.png	2	N_3.png	3	N_4.png	4	Y_1.png	1	Y_2.png	2	Y_3.png	3	Y_4.png	4	response_G.png	3	response_S.png	4	Word 7 of 6	1	Image 0 of 40	1	very_global.png	7	very_specific.png	6	less_global.png	9	less_specific.png	8	reveal.png	5	0	0	0	0
1	practiceBlock	practice_trial	3	23	no_3	Picture3.jpg	Picture1.jpg	1	N_1.png	1	N_2.png	2	N_3.png	3	N_4.png	4	Y_1.png	1	Y_2.png	2	Y_3.png	3	Y_4.png	4	response_G.png	3	response_S.png	4	Word 8 of 6	1	Image 0 of 40	1	very_global.png	7	very_specific.png	6	less_global.png	9	less_specific.png	8	reveal.png	5	color	6
1	practiceBlock	centre_mouse	4	65	reveal	Picture3.jpg	N_1.png	1	N_2.png	2	N_3.png	3	N_4.png	4	Y_1.png	1	Y_2.png	2	Y_3.png	3	Y_4.png	4	response_G.png	3	response_S.png	4	Word 8 of 6	1	Image 0 of 40	1	very_global.png	7	very_specific.png	6	less_global.png	9	less_specific.png	8	reveal.png	5	0	0	0	0
1	practiceBlock	practice_trial	5	50	no_4	Picture1.jpg	Picture2.jpg	2	N_1.png	1	N_2.png	2	N_3.png	3	N_4.png	4	Y_1.png	1	Y_2.png	2	Y_3.png	3	Y_4.png	4	response_G.png	3	response_S.png	4	Word 9 of 6	1	Image 0 of 40	1	very_global.png	7	very_specific.png	6	less_global.png	9	less_specific.png	8	reveal.png	5	black	4
1	practiceBlock	centre_mouse	6	52	reveal	Picture1.jpg	N_1.png	1	N_2.png	2	N_3.png	3	N_4.png	4	Y_1.png	1	Y_2.png	2	Y_3.png	3	Y_4.png	4	response_G.png	3	response_S.png	4	Word 9 of 6	1	Image 0 of 40	1	very_global.png	7	very_specific.png	6	less_global.png	9	less_specific.png	8	reveal.png	5	0	0	0	0
1	practiceBlock	practice_trial	7	48	no_3	Picture2.jpg	Picture2.jpg	2	N_1.png	1	N_2.png	2	N_3.png	3	N_4.png	4	Y_1.png	1	Y_2.png	2	Y_3.png	3	Y_4.png	4	response_G.png	3	response_S.png	4	Word 10 of 6	1	Image 0 of 40	1	very_global.png	7	very_specific.png	6	less_global.png	9	less_specific.png	8	reveal.png	5	red	3
1	practiceBlock	centre_mouse	8	36	reveal	Picture2.jpg	N_1.png	1	N_2.png	2	N_3.png	3	N_4.png	4	Y_1.png	1	Y_2.png	2	Y_3.png	3	Y_4.png	4	response_G.png	3	response_S.png	4	Word 10 of 6	1	Image 0 of 40	1	very_global.png	7	very_specific.png	6	less_global.png	9	less_specific.png	8	reveal.png	5	0	0	0	0
1	practiceBlock	practice_trial	9	40	yes_1	Picture2.jpg	Picture3.jpg	3	N_1.png	1	N_2.png	2	N_3.png	3	N_4.png	4	Y_1.png	1	Y_2.png	2	Y_3.png	3	Y_4.png	4	response_G.png	3	response_S.png	4	Word 11 of 6	1	Image 0 of 40	1	very_global.png	7	very_specific.png	6	less_global.png	9	less_specific.png	8	reveal.png	5	love	2
1	practiceBlock	centre_mouse	10	49	reveal	Picture2.jpg	N_1.png	1	N_2.png	2	N_3.png	3	N_4.png	4	Y_1.png	1	Y_2.png	2	Y_3.png	3	Y_4.png	4	response_G.png	3	response_S.png	4	Word 11 of 6	1	Image 0 of 40	1	very_global.png	7	very_specific.png	6	less_global.png	9	less_specific.png	8	reveal.png	5	0	0	0	0
1	practiceBlock	practice_trial	11	20	no_3	Picture3.jpg	Picture1.jpg	1	N_1.png	1	N_2.png	2	N_3.png	3	N_4.png	4	Y_1.png	1	Y_2.png	2	Y_3.png	3	Y_4.png	4	response_G.png	3	response_S.png	4	Word 12 of 6	1	Image 0 of 40	1	very_global.png	7	very_specific.png	6	less_global.png	9	less_specific.png	8	reveal.png	5	outline	5
1	practiceBlock	centre_mouse	12	35	reveal	Picture3.jpg	N_1.png	1	N_2.png	2	N_3.png	3	N_4.png	4	Y_1.png	1	Y_2.png	2	Y_3.png	3	Y_4.png	4	response_G.png	3	response_S.png	4	Word 12 of 6	1	Image 0 of 40	1	very_global.png	7	very_specific.png	6	less_global.png	9	less_specific.png	8	reveal.png	5	0	0	0	0
1	practiceBlock	practice_trial	1	45	no_1	Picture1.jpg	Picture1.jpg	1	N_1.png	1	N_2.png	2	N_3.png	3	N_4.png	4	Y_1.png	1	Y_2.png	2	Y_3.png	3	Y_4.png	4	response_G.png	3	response_S.png	4	Word 13 of 6	1	Image 0 of 40	1	very_global.png	7	very_specific.png	6	less_global.png	9	less_specific.png	8	reveal.png	5	outline	5
1	practiceBlock	centre_mouse	2	32	reveal	Picture1.jpg	N_1.png	1	N_2.png	2	N_3.png	3	N_4.png	4	Y_1.png	1	Y_2.png	2	Y_3.png	3	Y_4.png	4	response_G.png	3	response_S.png	4	Word 13 of 6	1	Image 0 of 40	1	very_global.png	7	very_specific.png	6	less_global.png	9	less_specific.png	8	reveal.png	5	0	0	0	0
1	practiceBlock	practice_trial	3	39	yes_1	Picture1.jpg	Picture3.jpg	3	N_1.png	1	N_2.png	2	N_3.png	3	N_4.png	4	Y_1.png	1	Y_2.png	2	Y_3.png	3	Y_4.png	4	response_G.png	3	response_S.png	4	Word 14 of 6	1	Image 0 of 40	1	very_global.png	7	very_specific.png	6	less_global.png	9	less_specific.png	8	reveal.png	5	love	2
1	practiceBlock	centre_mouse	4	40	reveal	Picture1.jpg	N_1.png	1	N_2.png	2	N_3.png	3	N_4.png	4	Y_1.png	1	Y_2.png	2	Y_3.png	3	Y_4.png	4	response_G.png	3	response_S.png	4	Word 14 of 6	1	Image 0 of 40	1	very_global.png	7	very_specific.png	6	less_global.png	9	less_specific.png	8	reveal.png	5	0	0	0	0
1	practiceBlock	practice_trial	5	53	no_4	Picture3.jpg	Picture2.jpg	2	N_1.png	1	N_2.png	2	N_3.png	3	N_4.png	4	Y_1.png	1	Y_2.png	2	Y_3.png	3	Y_4.png	4	response_G.png	3	response_S.png	4	Word 15 of 6	1	Image 0 of 40	1	very_global.png	7	very_specific.png	6	less_global.png	9	less_specific.png	8	reveal.png	5	red	3
1	practiceBlock	centre_mouse	6	35	reveal	Picture3.jpg	N_1.png	1	N_2.png	2	N_3.png	3	N_4.png	4	Y_1.png	1	Y_2.png	2	Y_3.png	3	Y_4.png	4	response_G.png	3	response_S.png	4	Word 15 of 6	1	Image 0 of 40	1	very_global.png	7	very_specific.png	6	less_global.png	9	less_specific.png	8	reveal.png	5	0	0	0	0
1	practiceBlock	practice_trial	7	59	no_4	Picture2.jpg	Picture3.jpg	3	N_1.png	1	N_2.png	2	N_3.png	3	N_4.png	4	Y_1.png	1	Y_2.png	2	Y_3.png	3	Y_4.png	4	response_G.png	3	response_S.png	4	Word 16 of 6	1	Image 0 of 40	1	very_global.png	7	very_specific.png	6	less_global.png	9	less_specific.png	8	reveal.png	5	color	6
1	practiceBlock	centre_mouse	8	51	reveal	Picture2.jpg	N_1.png	1	N_2.png	2	N_3.png	3	N_4.png	4	Y_1.png	1	Y_2.png	2	Y_3.png	3	Y_4.png	4	response_G.png	3	response_S.png	4	Word 16 of 6	1	Image 0 of 40	1	very_global.png	7	very_specific.png	6	less_global.png	9	less_specific.png	8	reveal.png	5	0	0	0	0
1	practiceBlock	practice_trial	9	32	no_1	Picture3.jpg	Picture2.jpg	2	N_1.png	1	N_2.png	2	N_3.png	3	N_4.png	4	Y_1.png	1	Y_2.png	2	Y_3.png	3	Y_4.png	4	response_G.png	3	response_S.png	4	Word 17 of 6	1	Image 0 of 40	1	very_global.png	7	very_specific.png	6	less_global.png	9	less_specific.png	8	reveal.png	5	heart	1
1	practiceBlock	centre_mouse	10	41	reveal	Picture3.jpg	N_1.png	1	N_2.png	2	N_3.png	3	N_4.png	4	Y_1.png	1	Y_2.png	2	Y_3.png	3	Y_4.png	4	response_G.png	3	response_S.png	4	Word 17 of 6	1	Image 0 of 40	1	very_global.png	7	very_specific.png	6	less_global.png	9	less_specific.png	8	reveal.png	5	0	0	0	0
1	practiceBlock	practice_trial	11	63	no_1	Picture2.jpg	Picture1.jpg	1	N_1.png	1	N_2.png	2	N_3.png	3	N_4.png	4	Y_1.png	1	Y_2.png	2	Y_3.png	3	Y_4.png	4	response_G.png	3	response_S.png	4	Word 18 of 6	1	Image 0 of 40	1	very_global.png	7	very_specific.png	6	less_global.png	9	less_specific.png	8	reveal.png	5	black	4
1	practiceBlock	centre_mouse	12	43	reveal	Picture2.jpg	N_1.png	1	N_2.png	2	N_3.png	3	N_4.png	4	Y_1.png	1	Y_2.png	2	Y_3.png	3	Y_4.png	4	response_G.png	3	response_S.png	4	Word 18 of 6	1	Image 0 of 40	1	very_global.png	7	very_specific.png	6	less_global.png	9	less_specific.png	8	reveal.png	5	0	0	0	0
1	reset	reset	1	200	0	Picture2.jpg	0	0	0	0	0	0	0	0	0	0	0	0	0	0	0	0	0	0	0	0	0	0	0	0	0	0	0	0	0	0	0	0	0	0	0	0	0	0
1	reminder_start	reminder_start	1	61	reveal	Picture2.jpg	Click the center square to proceed to the REAL trials	1	reveal.png	5	0	0	0	0	0	0	0	0	0	0	0	0	0	0	0	0	0	0	0	0	0	0	0	0	0	0	0	0	0	0	0	0	0	0
1	testBlock	present_trial	1	46	yes_3	im0000041.jpg	im0000183.jpg	15	N_1.png	1	N_2.png	2	N_3.png	3	N_4.png	4	Y_1.png	1	Y_2.png	2	Y_3.png	3	Y_4.png	4	response_G.png	3	response_S.png	4	Word 1 of 6	1	Image 1 of 40	1	very_global.png	7	very_specific.png	6	less_global.png	9	less_specific.png	8	reveal.png	5	cow	1
1	testBlock	centre_mouse	2	32	reveal	im0000041.jpg	N_1.png	1	N_2.png	2	N_3.png	3	N_4.png	4	Y_1.png	1	Y_2.png	2	Y_3.png	3	Y_4.png	4	response_G.png	3	response_S.png	4	Word 1 of 6	1	Image 1 of 40	1	very_global.png	7	very_specific.png	6	less_global.png	9	less_specific.png	8	reveal.png	5	0	0	0	0
1	testBlock	present_trial	3	34	no_2	im0000183.jpg	im0000097.jpg	8	N_1.png	1	N_2.png	2	N_3.png	3	N_4.png	4	Y_1.png	1	Y_2.png	2	Y_3.png	3	Y_4.png	4	response_G.png	3	response_S.png	4	Word 2 of 6	1	Image 2 of 40	1	very_global.png	7	very_specific.png	6	less_global.png	9	less_specific.png	8	reveal.png	5	horse	4
1	testBlock	centre_mouse	4	36	reveal	im0000183.jpg	N_1.png	1	N_2.png	2	N_3.png	3	N_4.png	4	Y_1.png	1	Y_2.png	2	Y_3.png	3	Y_4.png	4	response_G.png	3	response_S.png	4	Word 2 of 6	1	Image 2 of 40	1	very_global.png	7	very_specific.png	6	less_global.png	9	less_specific.png	8	reveal.png	5	0	0	0	0
1	testBlock	present_trial	5	57	no_4	im0000097.jpg	im0000236.jpg	18	N_1.png	1	N_2.png	2	N_3.png	3	N_4.png	4	Y_1.png	1	Y_2.png	2	Y_3.png	3	Y_4.png	4	response_G.png	3	response_S.png	4	Word 3 of 6	1	Image 3 of 40	1	very_global.png	7	very_specific.png	6	less_global.png	9	less_specific.png	8	reveal.png	5	green	6
1	testBlock	centre_mouse	6	52	reveal	im0000097.jpg	N_1.png	1	N_2.png	2	N_3.png	3	N_4.png	4	Y_1.png	1	Y_2.png	2	Y_3.png	3	Y_4.png	4	response_G.png	3	response_S.png	4	Word 3 of 6	1	Image 3 of 40	1	very_global.png	7	very_specific.png	6	less_global.png	9	less_specific.png	8	reveal.png	5	0	0	0	0
1	testBlock	present_trial	7	41	no_2	im0000236.jpg	im0000355.jpg	35	N_1.png	1	N_2.png	2	N_3.png	3	N_4.png	4	Y_1.png	1	Y_2.png	2	Y_3.png	3	Y_4.png	4	response_G.png	3	response_S.png	4	Word 4 of 6	1	Image 4 of 40	1	very_global.png	7	very_specific.png	6	less_global.png	9	less_specific.png	8	reveal.png	5	farm	2
1	testBlock	centre_mouse	8	68	reveal	im0000236.jpg	N_1.png	1	N_2.png	2	N_3.png	3	N_4.png	4	Y_1.png	1	Y_2.png	2	Y_3.png	3	Y_4.png	4	response_G.png	3	response_S.png	4	Word 4 of 6	1	Image 4 of 40	1	very_global.png	7	very_specific.png	6	less_global.png	9	less_specific.png	8	reveal.png	5	0	0	0	0
1	testBlock	present_trial	9	30	no_3	im0000355.jpg	im0000321.jpg	31	N_1.png	1	N_2.png	2	N_3.png	3	N_4.png	4	Y_1.png	1	Y_2.png	2	Y_3.png	3	Y_4.png	4	response_G.png	3	response_S.png	4	Word 5 of 6	1	Image 5 of 40	1	very_global.png	7	very_specific.png	6	less_global.png	9	less_specific.png	8	reveal.png	5	sunny	5
1	testBlock	centre_mouse	10	41	reveal	im0000355.jpg	N_1.png	1	N_2.png	2	N_3.png	3	N_4.png	4	Y_1.png	1	Y_2.png	2	Y_3.png	3	Y_4.png	4	response_G.png	3	response_S.png	4	Word 5 of 6	1	Image 5 of 40	1	very_global.png	7	very_specific.png	6	less_global.png	9	less_specific.png	8	reveal.png	5	0	0	0	0
1	testBlock	present_trial	11	50	yes_1	im0000321.jpg	im0000177.jpg	14	N_1.png	1	N_2.png	2	N_3.png	3	N_4.png	4	Y_1.png	1	Y_2.png	2	Y_3.png	3	Y_4.png	4	response_G.png	3	response_S.png	4	Word 6 of 6	1	Image 6 of 40	1	very_global.png	7	very_specific.png	6	less_global.png	9	less_specific.png	8	reveal.png	5	pasture	3
1	testBlock	centre_mouse	12	55	reveal	im0000321.jpg	N_1.png	1	N_2.png	2	N_3.png	3	N_4.png	4	Y_1.png	1	Y_2.png	2	Y_3.png	3	Y_4.png	4	response_G.png	3	response_S.png	4	Word 6 of 6	1	Image 6 of 40	1	very_global.png	7	very_specific.png	6	less_global.png	9	less_specific.png	8	reveal.png	5	0	0	0	0
1	testBlock	present_trial	1	50	yes_2	im0000177.jpg	im0000260.jpg	22	N_1.png	1	N_2.png	2	N_3.png	3	N_4.png	4	Y_1.png	1	Y_2.png	2	Y_3.png	3	Y_4.png	4	response_G.png	3	response_S.png	4	Word 7 of 6	1	Image 7 of 40	1	very_global.png	7	very_specific.png	6	less_global.png	9	less_specific.png	8	reveal.png	5	male	3
1	testBlock	centre_mouse	2	35	reveal	im0000177.jpg	N_1.png	1	N_2.png	2	N_3.png	3	N_4.png	4	Y_1.png	1	Y_2.png	2	Y_3.png	3	Y_4.png	4	response_G.png	3	response_S.png	4	Word 7 of 6	1	Image 7 of 40	1	very_global.png	7	very_specific.png	6	less_global.png	9	less_specific.png	8	reveal.png	5	0	0	0	0
1	testBlock	present_trial	3	40	yes_3	im0000260.jpg	im0000249.jpg	21	N_1.png	1	N_2.png	2	N_3.png	3	N_4.png	4	Y_1.png	1	Y_2.png	2	Y_3.png	3	Y_4.png	4	response_G.png	3	response_S.png	4	Word 8 of 6	1	Image 8 of 40	1	very_global.png	7	very_specific.png	6	less_global.png	9	less_specific.png	8	reveal.png	5	sport	6
1	testBlock	centre_mouse	4	53	reveal	im0000260.jpg	N_1.png	1	N_2.png	2	N_3.png	3	N_4.png	4	Y_1.png	1	Y_2.png	2	Y_3.png	3	Y_4.png	4	response_G.png	3	response_S.png	4	Word 8 of 6	1	Image 8 of 40	1	very_global.png	7	very_specific.png	6	less_global.png	9	less_specific.png	8	reveal.png	5	0	0	0	0
1	testBlock	present_trial	5	39	no_4	im0000249.jpg	im0000126.jpg	12	N_1.png	1	N_2.png	2	N_3.png	3	N_4.png	4	Y_1.png	1	Y_2.png	2	Y_3.png	3	Y_4.png	4	response_G.png	3	response_S.png	4	Word 9 of 6	1	Image 9 of 40	1	very_global.png	7	very_specific.png	6	less_global.png	9	less_specific.png	8	reveal.png	5	water	5
1	testBlock	centre_mouse	6	34	reveal	im0000249.jpg	N_1.png	1	N_2.png	2	N_3.png	3	N_4.png	4	Y_1.png	1	Y_2.png	2	Y_3.png	3	Y_4.png	4	response_G.png	3	response_S.png	4	Word 9 of 6	1	Image 9 of 40	1	very_global.png	7	very_specific.png	6	less_global.png	9	less_specific.png	8	reveal.png	5	0	0	0	0
1	testBlock	present_trial	7	50	yes_4	im0000126.jpg	im0000113.jpg	11	N_1.png	1	N_2.png	2	N_3.png	3	N_4.png	4	Y_1.png	1	Y_2.png	2	Y_3.png	3	Y_4.png	4	response_G.png	3	response_S.png	4	Word 10 of 6	1	Image 10 of 40	1	very_global.png	7	very_specific.png	6	less_global.png	9	less_specific.png	8	reveal.png	5	golf	2
1	testBlock	centre_mouse	8	56	reveal	im0000126.jpg	N_1.png	1	N_2.png	2	N_3.png	3	N_4.png	4	Y_1.png	1	Y_2.png	2	Y_3.png	3	Y_4.png	4	response_G.png	3	response_S.png	4	Word 10 of 6	1	Image 10 of 40	1	very_global.png	7	very_specific.png	6	less_global.png	9	less_specific.png	8	reveal.png	5	0	0	0	0
1	testBlock	present_trial	9	42	no_1	im0000113.jpg	im0000285.jpg	27	N_1.png	1	N_2.png	2	N_3.png	3	N_4.png	4	Y_1.png	1	Y_2.png	2	Y_3.png	3	Y_4.png	4	response_G.png	3	response_S.png	4	Word 11 of 6	1	Image 11 of 40	1	very_global.png	7	very_specific.png	6	less_global.png	9	less_specific.png	8	reveal.png	5	cap	4
1	testBlock	centre_mouse	10	63	reveal	im0000113.jpg	N_1.png	1	N_2.png	2	N_3.png	3	N_4.png	4	Y_1.png	1	Y_2.png	2	Y_3.png	3	Y_4.png	4	response_G.png	3	response_S.png	4	Word 11 of 6	1	Image 11 of 40	1	very_global.png	7	very_specific.png	6	less_global.png	9	less_specific.png	8	reveal.png	5	0	0	0	0
1	testBlock	present_trial	11	41	yes_3	im0000285.jpg	im0000041.jpg	1	N_1.png	1	N_2.png	2	N_3.png	3	N_4.png	4	Y_1.png	1	Y_2.png	2	Y_3.png	3	Y_4.png	4	response_G.png	3	response_S.png	4	Word 12 of 6	1	Image 12 of 40	1	very_global.png	7	very_specific.png	6	less_global.png	9	less_specific.png	8	reveal.png	5	swing	1
1	testBlock	centre_mouse	12	69	reveal	im0000285.jpg	N_1.png	1	N_2.png	2	N_3.png	3	N_4.png	4	Y_1.png	1	Y_2.png	2	Y_3.png	3	Y_4.png	4	response_G.png	3	response_S.png	4	Word 12 of 6	1	Image 12 of 40	1	very_global.png	7	very_specific.png	6	less_global.png	9	less_specific.png	8	reveal.png	5	0	0	0	0
1	testBlock	present_trial	1	38	yes_4	im0000041.jpg	im0000293.jpg	28	N_1.png	1	N_2.png	2	N_3.png	3	N_4.png	4	Y_1.png	1	Y_2.png	2	Y_3.png	3	Y_4.png	4	response_G.png	3	response_S.png	4	Word 13 of 6	1	Image 13 of 40	1	very_global.png	7	very_specific.png	6	less_global.png	9	less_specific.png	8	reveal.png	5	sunny	5
1	testBlock	centre_mouse	2	41	reveal	im0000041.jpg	N_1.png	1	N_2.png	2	N_3.png	3	N_4.png	4	Y_1.png	1	Y_2.png	2	Y_3.png	3	Y_4.png	4	response_G.png	3	response_S.png	4	Word 13 of 6	1	Image 13 of 40	1	very_global.png	7	very_specific.png	6	less_global.png	9	less_specific.png	8	reveal.png	5	0	0	0	0
1	testBlock	present_trial	3	41	yes_4	im0000293.jpg	im0000056.jpg	3	N_1.png	1	N_2.png	2	N_3.png	3	N_4.png	4	Y_1.png	1	Y_2.png	2	Y_3.png	3	Y_4.png	4	response_G.png	3	response_S.png	4	Word 14 of 6	1	Image 14 of 40	1	very_global.png	7	very_specific.png	6	less_global.png	9	less_specific.png	8	reveal.png	5	pasture	3
1	testBlock	centre_mouse	4	49	reveal	im0000293.jpg	N_1.png	1	N_2.png	2	N_3.png	3	N_4.png	4	Y_1.png	1	Y_2.png	2	Y_3.png	3	Y_4.png	4	response_G.png	3	response_S.png	4	Word 14 of 6	1	Image 14 of 40	1	very_global.png	7	very_specific.png	6	less_global.png	9	less_specific.png	8	reveal.png	5	0	0	0	0
1	testBlock	present_trial	5	48	no_4	im0000056.jpg	im0000390.jpg	38	N_1.png	1	N_2.png	2	N_3.png	3	N_4.png	4	Y_1.png	1	Y_2.png	2	Y_3.png	3	Y_4.png	4	response_G.png	3	response_S.png	4	Word 15 of 6	1	Image 15 of 40	1	very_global.png	7	very_specific.png	6	less_global.png	9	less_specific.png	8	reveal.png	5	green	6
1	testBlock	centre_mouse	6	33	reveal	im0000056.jpg	N_1.png	1	N_2.png	2	N_3.png	3	N_4.png	4	Y_1.png	1	Y_2.png	2	Y_3.png	3	Y_4.png	4	response_G.png	3	response_S.png	4	Word 15 of 6	1	Image 15 of 40	1	very_global.png	7	very_specific.png	6	less_global.png	9	less_specific.png	8	reveal.png	5	0	0	0	0
1	testBlock	present_trial	7	35	no_4	im0000390.jpg	im0000393.jpg	39	N_1.png	1	N_2.png	2	N_3.png	3	N_4.png	4	Y_1.png	1	Y_2.png	2	Y_3.png	3	Y_4.png	4	response_G.png	3	response_S.png	4	Word 16 of 6	1	Image 16 of 40	1	very_global.png	7	very_specific.png	6	less_global.png	9	less_specific.png	8	reveal.png	5	farm	2
1	testBlock	centre_mouse	8	42	reveal	im0000390.jpg	N_1.png	1	N_2.png	2	N_3.png	3	N_4.png	4	Y_1.png	1	Y_2.png	2	Y_3.png	3	Y_4.png	4	response_G.png	3	response_S.png	4	Word 16 of 6	1	Image 16 of 40	1	very_global.png	7	very_specific.png	6	less_global.png	9	less_specific.png	8	reveal.png	5	0	0	0	0
1	testBlock	present_trial	9	61	no_3	im0000393.jpg	im0000245.jpg	20	N_1.png	1	N_2.png	2	N_3.png	3	N_4.png	4	Y_1.png	1	Y_2.png	2	Y_3.png	3	Y_4.png	4	response_G.png	3	response_S.png	4	Word 17 of 6	1	Image 17 of 40	1	very_global.png	7	very_specific.png	6	less_global.png	9	less_specific.png	8	reveal.png	5	cow	1
1	testBlock	centre_mouse	10	50	reveal	im0000393.jpg	N_1.png	1	N_2.png	2	N_3.png	3	N_4.png	4	Y_1.png	1	Y_2.png	2	Y_3.png	3	Y_4.png	4	response_G.png	3	response_S.png	4	Word 17 of 6	1	Image 17 of 40	1	very_global.png	7	very_specific.png	6	less_global.png	9	less_specific.png	8	reveal.png	5	0	0	0	0
1	testBlock	present_trial	11	39	yes_3	im0000245.jpg	im0000308.jpg	29	N_1.png	1	N_2.png	2	N_3.png	3	N_4.png	4	Y_1.png	1	Y_2.png	2	Y_3.png	3	Y_4.png	4	response_G.png	3	response_S.png	4	Word 18 of 6	1	Image 18 of 40	1	very_global.png	7	very_specific.png	6	less_global.png	9	less_specific.png	8	reveal.png	5	horse	4
1	testBlock	centre_mouse	12	61	reveal	im0000245.jpg	N_1.png	1	N_2.png	2	N_3.png	3	N_4.png	4	Y_1.png	1	Y_2.png	2	Y_3.png	3	Y_4.png	4	response_G.png	3	response_S.png	4	Word 18 of 6	1	Image 18 of 40	1	very_global.png	7	very_specific.png	6	less_global.png	9	less_specific.png	8	reveal.png	5	0	0	0	0
1	testBlock	present_trial	1	38	no_1	im0000308.jpg	im0000333.jpg	33	N_1.png	1	N_2.png	2	N_3.png	3	N_4.png	4	Y_1.png	1	Y_2.png	2	Y_3.png	3	Y_4.png	4	response_G.png	3	response_S.png	4	Word 19 of 6	1	Image 19 of 40	1	very_global.png	7	very_specific.png	6	less_global.png	9	less_specific.png	8	reveal.png	5	shop	2
1	testBlock	centre_mouse	2	62	reveal	im0000308.jpg	N_1.png	1	N_2.png	2	N_3.png	3	N_4.png	4	Y_1.png	1	Y_2.png	2	Y_3.png	3	Y_4.png	4	response_G.png	3	response_S.png	4	Word 19 of 6	1	Image 19 of 40	1	very_global.png	7	very_specific.png	6	less_global.png	9	less_specific.png	8	reveal.png	5	0	0	0	0
1	testBlock	present_trial	3	50	no_3	im0000333.jpg	im0000109.jpg	10	N_1.png	1	N_2.png	2	N_3.png	3	N_4.png	4	Y_1.png	1	Y_2.png	2	Y_3.png	3	Y_4.png	4	response_G.png	3	response_S.png	4	Word 20 of 6	1	Image 20 of 40	1	very_global.png	7	very_specific.png	6	less_global.png	9	less_specific.png	8	reveal.png	5	people	5
1	testBlock	centre_mouse	4	43	reveal	im0000333.jpg	N_1.png	1	N_2.png	2	N_3.png	3	N_4.png	4	Y_1.png	1	Y_2.png	2	Y_3.png	3	Y_4.png	4	response_G.png	3	response_S.png	4	Word 20 of 6	1	Image 20 of 40	1	very_global.png	7	very_specific.png	6	less_global.png	9	less_specific.png	8	reveal.png	5	0	0	0	0
1	testBlock	present_trial	5	52	yes_2	im0000109.jpg	im0000376.jpg	36	N_1.png	1	N_2.png	2	N_3.png	3	N_4.png	4	Y_1.png	1	Y_2.png	2	Y_3.png	3	Y_4.png	4	response_G.png	3	response_S.png	4	Word 21 of 6	1	Image 21 of 40	1	very_global.png	7	very_specific.png	6	less_global.png	9	less_specific.png	8	reveal.png	5	street	1
1	testBlock	centre_mouse	6	34	reveal	im0000109.jpg	N_1.png	1	N_2.png	2	N_3.png	3	N_4.png	4	Y_1.png	1	Y_2.png	2	Y_3.png	3	Y_4.png	4	response_G.png	3	response_S.png	4	Word 21 of 6	1	Image 21 of 40	1	very_global.png	7	very_specific.png	6	less_global.png	9	less_specific.png	8	reveal.png	5	0	0	0	0
1	testBlock	present_trial	7	41	no_3	im0000376.jpg	im0000277.jpg	25	N_1.png	1	N_2.png	2	N_3.png	3	N_4.png	4	Y_1.png	1	Y_2.png	2	Y_3.png	3	Y_4.png	4	response_G.png	3	response_S.png	4	Word 22 of 6	1	Image 22 of 40	1	very_global.png	7	very_specific.png	6	less_global.png	9	less_specific.png	8	reveal.png	5	car	3
1	testBlock	centre_mouse	8	44	reveal	im0000376.jpg	N_1.png	1	N_2.png	2	N_3.png	3	N_4.png	4	Y_1.png	1	Y_2.png	2	Y_3.png	3	Y_4.png	4	response_G.png	3	response_S.png	4	Word 22 of 6	1	Image 22 of 40	1	very_global.png	7	very_specific.png	6	less_global.png	9	less_specific.png	8	reveal.png	5	0	0	0	0
1	testBlock	present_trial	9	32	no_2	im0000277.jpg	im0000085.jpg	7	N_1.png	1	N_2.png	2	N_3.png	3	N_4.png	4	Y_1.png	1	Y_2.png	2	Y_3.png	3	Y_4.png	4	response_G.png	3	response_S.png	4	Word 23 of 6	1	Image 23 of 40	1	very_global.png	7	very_specific.png	6	less_global.png	9	less_specific.png	8	reveal.png	5	store	4
1	testBlock	centre_mouse	10	46	reveal	im0000277.jpg	N_1.png	1	N_2.png	2	N_3.png	3	N_4.png	4	Y_1.png	1	Y_2.png	2	Y_3.png	3	Y_4.png	4	response_G.png	3	response_S.png	4	Word 23 of 6	1	Image 23 of 40	1	very_global.png	7	very_specific.png	6	less_global.png	9	less_specific.png	8	reveal.png	5	0	0	0	0
1	testBlock	present_trial	11	46	yes_3	im0000085.jpg	im0000069.jpg	5	N_1.png	1	N_2.png	2	N_3.png	3	N_4.png	4	Y_1.png	1	Y_2.png	2	Y_3.png	3	Y_4.png	4	response_G.png	3	response_S.png	4	Word 24 of 6	1	Image 24 of 40	1	very_global.png	7	very_specific.png	6	less_global.png	9	less_specific.png	8	reveal.png	5	build	6
1	testBlock	centre_mouse	12	48	reveal	im0000085.jpg	N_1.png	1	N_2.png	2	N_3.png	3	N_4.png	4	Y_1.png	1	Y_2.png	2	Y_3.png	3	Y_4.png	4	response_G.png	3	response_S.png	4	Word 24 of 6	1	Image 24 of 40	1	very_global.png	7	very_specific.png	6	less_global.png	9	less_specific.png	8	reveal.png	5	0	0	0	0
1	testBlock	present_trial	1	35	yes_1	im0000069.jpg	im0000151.jpg	13	N_1.png	1	N_2.png	2	N_3.png	3	N_4.png	4	Y_1.png	1	Y_2.png	2	Y_3.png	3	Y_4.png	4	response_G.png	3	response_S.png	4	Word 25 of 6	1	Image 25 of 40	1	very_global.png	7	very_specific.png	6	less_global.png	9	less_specific.png	8	reveal.png	5	daytime	5
1	testBlock	centre_mouse	2	54	reveal	im0000069.jpg	N_1.png	1	N_2.png	2	N_3.png	3	N_4.png	4	Y_1.png	1	Y_2.png	2	Y_3.png	3	Y_4.png	4	response_G.png	3	response_S.png	4	Word 25 of 6	1	Image 25 of 40	1	very_global.png	7	very_specific.png	6	less_global.png	9	less_specific.png	8	reveal.png	5	0	0	0	0
1	testBlock	present_trial	3	52	no_1	im0000151.jpg	im0000261.jpg	23	N_1.png	1	N_2.png	2	N_3.png	3	N_4.png	4	Y_1.png	1	Y_2.png	2	Y_3.png	3	Y_4.png	4	response_G.png	3	response_S.png	4	Word 26 of 6	1	Image 26 of 40	1	very_global.png	7	very_specific.png	6	less_global.png	9	less_specific.png	8	reveal.png	5	couple	3
1	testBlock	centre_mouse	4	38	reveal	im0000151.jpg	N_1.png	1	N_2.png	2	N_3.png	3	N_4.png	4	Y_1.png	1	Y_2.png	2	Y_3.png	3	Y_4.png	4	response_G.png	3	response_S.png	4	Word 26 of 6	1	Image 26 of 40	1	very_global.png	7	very_specific.png	6	less_global.png	9	less_specific.png	8	reveal.png	5	0	0	0	0
1	testBlock	present_trial	5	52	yes_4	im0000261.jpg	im0000282.jpg	26	N_1.png	1	N_2.png	2	N_3.png	3	N_4.png	4	Y_1.png	1	Y_2.png	2	Y_3.png	3	Y_4.png	4	response_G.png	3	response_S.png	4	Word 27 of 6	1	Image 27 of 40	1	very_global.png	7	very_specific.png	6	less_global.png	9	less_specific.png	8	reveal.png	5	statue	1
1	testBlock	centre_mouse	6	44	reveal	im0000261.jpg	N_1.png	1	N_2.png	2	N_3.png	3	N_4.png	4	Y_1.png	1	Y_2.png	2	Y_3.png	3	Y_4.png	4	response_G.png	3	response_S.png	4	Word 27 of 6	1	Image 27 of 40	1	very_global.png	7	very_specific.png	6	less_global.png	9	less_specific.png	8	reveal.png	5	0	0	0	0
1	testBlock	present_trial	7	43	no_3	im0000282.jpg	im0000313.jpg	30	N_1.png	1	N_2.png	2	N_3.png	3	N_4.png	4	Y_1.png	1	Y_2.png	2	Y_3.png	3	Y_4.png	4	response_G.png	3	response_S.png	4	Word 28 of 6	1	Image 28 of 40	1	very_global.png	7	very_specific.png	6	less_global.png	9	less_specific.png	8	reveal.png	5	group	6
1	testBlock	centre_mouse	8	72	reveal	im0000282.jpg	N_1.png	1	N_2.png	2	N_3.png	3	N_4.png	4	Y_1.png	1	Y_2.png	2	Y_3.png	3	Y_4.png	4	response_G.png	3	response_S.png	4	Word 28 of 6	1	Image 28 of 40	1	very_global.png	7	very_specific.png	6	less_global.png	9	less_specific.png	8	reveal.png	5	0	0	0	0
1	testBlock	present_trial	9	41	yes_1	im0000313.jpg	im0000385.jpg	37	N_1.png	1	N_2.png	2	N_3.png	3	N_4.png	4	Y_1.png	1	Y_2.png	2	Y_3.png	3	Y_4.png	4	response_G.png	3	response_S.png	4	Word 29 of 6	1	Image 29 of 40	1	very_global.png	7	very_specific.png	6	less_global.png	9	less_specific.png	8	reveal.png	5	love	2
1	testBlock	centre_mouse	10	53	reveal	im0000313.jpg	N_1.png	1	N_2.png	2	N_3.png	3	N_4.png	4	Y_1.png	1	Y_2.png	2	Y_3.png	3	Y_4.png	4	response_G.png	3	response_S.png	4	Word 29 of 6	1	Image 29 of 40	1	very_global.png	7	very_specific.png	6	less_global.png	9	less_specific.png	8	reveal.png	5	0	0	0	0
1	testBlock	present_trial	11	23	yes_1	im0000385.jpg	im0000341.jpg	34	N_1.png	1	N_2.png	2	N_3.png	3	N_4.png	4	Y_1.png	1	Y_2.png	2	Y_3.png	3	Y_4.png	4	response_G.png	3	response_S.png	4	Word 30 of 6	1	Image 30 of 40	1	very_global.png	7	very_specific.png	6	less_global.png	9	less_specific.png	8	reveal.png	5	people	4
1	testBlock	centre_mouse	12	52	reveal	im0000385.jpg	N_1.png	1	N_2.png	2	N_3.png	3	N_4.png	4	Y_1.png	1	Y_2.png	2	Y_3.png	3	Y_4.png	4	response_G.png	3	response_S.png	4	Word 30 of 6	1	Image 30 of 40	1	very_global.png	7	very_specific.png	6	less_global.png	9	less_specific.png	8	reveal.png	5	0	0	0	0
1	testBlock	present_trial	1	46	yes_1	im0000341.jpg	im0000239.jpg	19	N_1.png	1	N_2.png	2	N_3.png	3	N_4.png	4	Y_1.png	1	Y_2.png	2	Y_3.png	3	Y_4.png	4	response_G.png	3	response_S.png	4	Word 31 of 6	1	Image 31 of 40	1	very_global.png	7	very_specific.png	6	less_global.png	9	less_specific.png	8	reveal.png	5	rock	2
1	testBlock	centre_mouse	2	42	reveal	im0000341.jpg	N_1.png	1	N_2.png	2	N_3.png	3	N_4.png	4	Y_1.png	1	Y_2.png	2	Y_3.png	3	Y_4.png	4	response_G.png	3	response_S.png	4	Word 31 of 6	1	Image 31 of 40	1	very_global.png	7	very_specific.png	6	less_global.png	9	less_specific.png	8	reveal.png	5	0	0	0	0
1	testBlock	present_trial	3	45	yes_1	im0000239.jpg	im0000332.jpg	32	N_1.png	1	N_2.png	2	N_3.png	3	N_4.png	4	Y_1.png	1	Y_2.png	2	Y_3.png	3	Y_4.png	4	response_G.png	3	response_S.png	4	Word 32 of 6	1	Image 32 of 40	1	very_global.png	7	very_specific.png	6	less_global.png	9	less_specific.png	8	reveal.png	5	island	6
1	testBlock	centre_mouse	4	37	reveal	im0000239.jpg	N_1.png	1	N_2.png	2	N_3.png	3	N_4.png	4	Y_1.png	1	Y_2.png	2	Y_3.png	3	Y_4.png	4	response_G.png	3	response_S.png	4	Word 32 of 6	1	Image 32 of 40	1	very_global.png	7	very_specific.png	6	less_global.png	9	less_specific.png	8	reveal.png	5	0	0	0	0
1	testBlock	present_trial	5	42	yes_4	im0000332.jpg	im0000402.jpg	40	N_1.png	1	N_2.png	2	N_3.png	3	N_4.png	4	Y_1.png	1	Y_2.png	2	Y_3.png	3	Y_4.png	4	response_G.png	3	response_S.png	4	Word 33 of 6	1	Image 33 of 40	1	very_global.png	7	very_specific.png	6	less_global.png	9	less_specific.png	8	reveal.png	5	sand	1
1	testBlock	centre_mouse	6	53	reveal	im0000332.jpg	N_1.png	1	N_2.png	2	N_3.png	3	N_4.png	4	Y_1.png	1	Y_2.png	2	Y_3.png	3	Y_4.png	4	response_G.png	3	response_S.png	4	Word 33 of 6	1	Image 33 of 40	1	very_global.png	7	very_specific.png	6	less_global.png	9	less_specific.png	8	reveal.png	5	0	0	0	0
1	testBlock	present_trial	7	43	yes_1	im0000402.jpg	im0000084.jpg	6	N_1.png	1	N_2.png	2	N_3.png	3	N_4.png	4	Y_1.png	1	Y_2.png	2	Y_3.png	3	Y_4.png	4	response_G.png	3	response_S.png	4	Word 34 of 6	1	Image 34 of 40	1	very_global.png	7	very_specific.png	6	less_global.png	9	less_specific.png	8	reveal.png	5	stone	5
1	testBlock	centre_mouse	8	50	reveal	im0000402.jpg	N_1.png	1	N_2.png	2	N_3.png	3	N_4.png	4	Y_1.png	1	Y_2.png	2	Y_3.png	3	Y_4.png	4	response_G.png	3	response_S.png	4	Word 34 of 6	1	Image 34 of 40	1	very_global.png	7	very_specific.png	6	less_global.png	9	less_specific.png	8	reveal.png	5	0	0	0	0
1	testBlock	present_trial	9	31	yes_4	im0000084.jpg	im0000104.jpg	9	N_1.png	1	N_2.png	2	N_3.png	3	N_4.png	4	Y_1.png	1	Y_2.png	2	Y_3.png	3	Y_4.png	4	response_G.png	3	response_S.png	4	Word 35 of 6	1	Image 35 of 40	1	very_global.png	7	very_specific.png	6	less_global.png	9	less_specific.png	8	reveal.png	5	mountain	4
1	testBlock	centre_mouse	10	60	reveal	im0000084.jpg	N_1.png	1	N_2.png	2	N_3.png	3	N_4.png	4	Y_1.png	1	Y_2.png	2	Y_3.png	3	Y_4.png	4	response_G.png	3	response_S.png	4	Word 35 of 6	1	Image 35 of 40	1	very_global.png	7	very_specific.png	6	less_global.png	9	less_specific.png	8	reveal.png	5	0	0	0	0
1	testBlock	present_trial	11	37	yes_3	im0000104.jpg	im0000268.jpg	24	N_1.png	1	N_2.png	2	N_3.png	3	N_4.png	4	Y_1.png	1	Y_2.png	2	Y_3.png	3	Y_4.png	4	response_G.png	3	response_S.png	4	Word 36 of 6	1	Image 36 of 40	1	very_global.png	7	very_specific.png	6	less_global.png	9	less_specific.png	8	reveal.png	5	water	3
1	testBlock	centre_mouse	12	44	reveal	im0000104.jpg	N_1.png	1	N_2.png	2	N_3.png	3	N_4.png	4	Y_1.png	1	Y_2.png	2	Y_3.png	3	Y_4.png	4	response_G.png	3	response_S.png	4	Word 36 of 6	1	Image 36 of 40	1	very_global.png	7	very_specific.png	6	less_global.png	9	less_specific.png	8	reveal.png	5	0	0	0	0
1	testBlock	present_trial	1	46	yes_3	im0000268.jpg	im0000063.jpg	4	N_1.png	1	N_2.png	2	N_3.png	3	N_4.png	4	Y_1.png	1	Y_2.png	2	Y_3.png	3	Y_4.png	4	response_G.png	3	response_S.png	4	Word 37 of 6	1	Image 37 of 40	1	very_global.png	7	very_specific.png	6	less_global.png	9	less_specific.png	8	reveal.png	5	white	4
1	testBlock	centre_mouse	2	48	reveal	im0000268.jpg	N_1.png	1	N_2.png	2	N_3.png	3	N_4.png	4	Y_1.png	1	Y_2.png	2	Y_3.png	3	Y_4.png	4	response_G.png	3	response_S.png	4	Word 37 of 6	1	Image 37 of 40	1	very_global.png	7	very_specific.png	6	less_global.png	9	less_specific.png	8	reveal.png	5	0	0	0	0
1	testBlock	present_trial	3	23	no_4	im0000063.jpg	im0000050.jpg	2	N_1.png	1	N_2.png	2	N_3.png	3	N_4.png	4	Y_1.png	1	Y_2.png	2	Y_3.png	3	Y_4.png	4	response_G.png	3	response_S.png	4	Word 38 of 6	1	Image 38 of 40	1	very_global.png	7	very_specific.png	6	less_global.png	9	less_specific.png	8	reveal.png	5	screen	6
1	testBlock	centre_mouse	4	42	reveal	im0000063.jpg	N_1.png	1	N_2.png	2	N_3.png	3	N_4.png	4	Y_1.png	1	Y_2.png	2	Y_3.png	3	Y_4.png	4	response_G.png	3	response_S.png	4	Word 38 of 6	1	Image 38 of 40	1	very_global.png	7	very_specific.png	6	less_global.png	9	less_specific.png	8	reveal.png	5	0	0	0	0
1	testBlock	present_trial	5	36	no_1	im0000050.jpg	im0000205.jpg	16	N_1.png	1	N_2.png	2	N_3.png	3	N_4.png	4	Y_1.png	1	Y_2.png	2	Y_3.png	3	Y_4.png	4	response_G.png	3	response_S.png	4	Word 39 of 6	1	Image 39 of 40	1	very_global.png	7	very_specific.png	6	less_global.png	9	less_specific.png	8	reveal.png	5	type	1
1	testBlock	centre_mouse	6	47	reveal	im0000050.jpg	N_1.png	1	N_2.png	2	N_3.png	3	N_4.png	4	Y_1.png	1	Y_2.png	2	Y_3.png	3	Y_4.png	4	response_G.png	3	response_S.png	4	Word 39 of 6	1	Image 39 of 40	1	very_global.png	7	very_specific.png	6	less_global.png	9	less_specific.png	8	reveal.png	5	0	0	0	0
1	testBlock	present_trial	7	46	no_3	im0000205.jpg	im0000221.jpg	17	N_1.png	1	N_2.png	2	N_3.png	3	N_4.png	4	Y_1.png	1	Y_2.png	2	Y_3.png	3	Y_4.png	4	response_G.png	3	response_S.png	4	Word 40 of 6	1	Image 40 of 40	1	very_global.png	7	very_specific.png	6	less_global.png	9	less_specific.png	8	reveal.png	5	book	3
1	testBlock	centre_mouse	8	24	reveal	im0000205.jpg	N_1.png	1	N_2.png	2	N_3.png	3	N_4.png	4	Y_1.png	1	Y_2.png	2	Y_3.png	3	Y_4.png	4	response_G.png	3	response_S.png	4	Word 40 of 6	1	Image 40 of 40	1	very_global.png	7	very_specific.png	6	less_global.png	9	less_specific.png	8	reveal.png	5	0	0	0	0
1	testBlock	present_trial	9	29	yes_1	im0000221.jpg	im0000321.jpg	31	N_1.png	1	N_2.png	2	N_3.png	3	N_4.png	4	Y_1.png	1	Y_2.png	2	Y_3.png	3	Y_4.png	4	response_G.png	3	response_S.png	4	Word 41 of 6	1	Image 41 of 40	1	very_global.png	7	very_specific.png	6	less_global.png	9	less_specific.png	8	reveal.png	5	newspaper	2
1	testBlock	centre_mouse	10	49	reveal	im0000221.jpg	N_1.png	1	N_2.png	2	N_3.png	3	N_4.png	4	Y_1.png	1	Y_2.png	2	Y_3.png	3	Y_4.png	4	response_G.png	3	response_S.png	4	Word 41 of 6	1	Image 41 of 40	1	very_global.png	7	very_specific.png	6	less_global.png	9	less_specific.png	8	reveal.png	5	0	0	0	0
1	testBlock	present_trial	11	49	yes_2	im0000321.jpg	im0000151.jpg	13	N_1.png	1	N_2.png	2	N_3.png	3	N_4.png	4	Y_1.png	1	Y_2.png	2	Y_3.png	3	Y_4.png	4	response_G.png	3	response_S.png	4	Word 42 of 6	1	Image 42 of 40	1	very_global.png	7	very_specific.png	6	less_global.png	9	less_specific.png	8	reveal.png	5	write	5
1	testBlock	centre_mouse	12	40	reveal	im0000321.jpg	N_1.png	1	N_2.png	2	N_3.png	3	N_4.png	4	Y_1.png	1	Y_2.png	2	Y_3.png	3	Y_4.png	4	response_G.png	3	response_S.png	4	Word 42 of 6	1	Image 42 of 40	1	very_global.png	7	very_specific.png	6	less_global.png	9	less_specific.png	8	reveal.png	5	0	0	0	0
1	testBlock	present_trial	1	33	no_1	im0000151.jpg	im0000285.jpg	27	N_1.png	1	N_2.png	2	N_3.png	3	N_4.png	4	Y_1.png	1	Y_2.png	2	Y_3.png	3	Y_4.png	4	response_G.png	3	response_S.png	4	Word 43 of 6	1	Image 43 of 40	1	very_global.png	7	very_specific.png	6	less_global.png	9	less_specific.png	8	reveal.png	5	worship	6
1	testBlock	centre_mouse	2	44	reveal	im0000151.jpg	N_1.png	1	N_2.png	2	N_3.png	3	N_4.png	4	Y_1.png	1	Y_2.png	2	Y_3.png	3	Y_4.png	4	response_G.png	3	response_S.png	4	Word 43 of 6	1	Image 43 of 40	1	very_global.png	7	very_specific.png	6	less_global.png	9	less_specific.png	8	reveal.png	5	0	0	0	0
1	testBlock	present_trial	3	51	yes_2	im0000285.jpg	im0000104.jpg	9	N_1.png	1	N_2.png	2	N_3.png	3	N_4.png	4	Y_1.png	1	Y_2.png	2	Y_3.png	3	Y_4.png	4	response_G.png	3	response_S.png	4	Word 44 of 6	1	Image 44 of 40	1	very_global.png	7	very_specific.png	6	less_global.png	9	less_specific.png	8	reveal.png	5	muslim	1
1	testBlock	centre_mouse	4	42	reveal	im0000285.jpg	N_1.png	1	N_2.png	2	N_3.png	3	N_4.png	4	Y_1.png	1	Y_2.png	2	Y_3.png	3	Y_4.png	4	response_G.png	3	response_S.png	4	Word 44 of 6	1	Image 44 of 40	1	very_global.png	7	very_specific.png	6	less_global.png	9	less_specific.png	8	reveal.png	5	0	0	0	0
1	testBlock	present_trial	5	39	no_2	im0000104.jpg	im0000261.jpg	23	N_1.png	1	N_2.png	2	N_3.png	3	N_4.png	4	Y_1.png	1	Y_2.png	2	Y_3.png	3	Y_4.png	4	response_G.png	3	response_S.png	4	Word 45 of 6	1	Image 45 of 40	1	very_global.png	7	very_specific.png	6	less_global.png	9	less_specific.png	8	reveal.png	5	religion	4
1	testBlock	centre_mouse	6	53	reveal	im0000104.jpg	N_1.png	1	N_2.png	2	N_3.png	3	N_4.png	4	Y_1.png	1	Y_2.png	2	Y_3.png	3	Y_4.png	4	response_G.png	3	response_S.png	4	Word 45 of 6	1	Image 45 of 40	1	very_global.png	7	very_specific.png	6	less_global.png	9	less_specific.png	8	reveal.png	5	0	0	0	0
1	testBlock	present_trial	7	25	no_2	im0000261.jpg	im0000390.jpg	38	N_1.png	1	N_2.png	2	N_3.png	3	N_4.png	4	Y_1.png	1	Y_2.png	2	Y_3.png	3	Y_4.png	4	response_G.png	3	response_S.png	4	Word 46 of 6	1	Image 46 of 40	1	very_global.png	7	very_specific.png	6	less_global.png	9	less_specific.png	8	reveal.png	5	pray	2
1	testBlock	centre_mouse	8	45	reveal	im0000261.jpg	N_1.png	1	N_2.png	2	N_3.png	3	N_4.png	4	Y_1.png	1	Y_2.png	2	Y_3.png	3	Y_4.png	4	response_G.png	3	response_S.png	4	Word 46 of 6	1	Image 46 of 40	1	very_global.png	7	very_specific.png	6	less_global.png	9	less_specific.png	8	reveal.png	5	0	0	0	0
1	testBlock	present_trial	9	28	no_3	im0000390.jpg	im0000385.jpg	37	N_1.png	1	N_2.png	2	N_3.png	3	N_4.png	4	Y_1.png	1	Y_2.png	2	Y_3.png	3	Y_4.png	4	response_G.png	3	response_S.png	4	Word 47 of 6	1	Image 47 of 40	1	very_global.png	7	very_specific.png	6	less_global.png	9	less_specific.png	8	reveal.png	5	man	3
1	testBlock	centre_mouse	10	41	reveal	im0000390.jpg	N_1.png	1	N_2.png	2	N_3.png	3	N_4.png	4	Y_1.png	1	Y_2.png	2	Y_3.png	3	Y_4.png	4	response_G.png	3	response_S.png	4	Word 47 of 6	1	Image 47 of 40	1	very_global.png	7	very_specific.png	6	less_global.png	9	less_specific.png	8	reveal.png	5	0	0	0	0
1	testBlock	present_trial	11	34	yes_3	im0000385.jpg	im0000341.jpg	34	N_1.png	1	N_2.png	2	N_3.png	3	N_4.png	4	Y_1.png	1	Y_2.png	2	Y_3.png	3	Y_4.png	4	response_G.png	3	response_S.png	4	Word 48 of 6	1	Image 48 of 40	1	very_global.png	7	very_specific.png	6	less_global.png	9	less_specific.png	8	reveal.png	5	kneel	5
1	testBlock	centre_mouse	12	33	reveal	im0000385.jpg	N_1.png	1	N_2.png	2	N_3.png	3	N_4.png	4	Y_1.png	1	Y_2.png	2	Y_3.png	3	Y_4.png	4	response_G.png	3	response_S.png	4	Word 48 of 6	1	Image 48 of 40	1	very_global.png	7	very_specific.png	6	less_global.png	9	less_specific.png	8	reveal.png	5	0	0	0	0
1	testBlock	present_trial	1	43	yes_1	im0000341.jpg	im0000041.jpg	1	N_1.png	1	N_2.png	2	N_3.png	3	N_4.png	4	Y_1.png	1	Y_2.png	2	Y_3.png	3	Y_4.png	4	response_G.png	3	response_S.png	4	Word 49 of 6	1	Image 49 of 40	1	very_global.png	7	very_specific.png	6	less_global.png	9	less_specific.png	8	reveal.png	5	stone	5
1	testBlock	centre_mouse	2	68	reveal	im0000341.jpg	N_1.png	1	N_2.png	2	N_3.png	3	N_4.png	4	Y_1.png	1	Y_2.png	2	Y_3.png	3	Y_4.png	4	response_G.png	3	response_S.png	4	Word 49 of 6	1	Image 49 of 40	1	very_global.png	7	very_specific.png	6	less_global.png	9	less_specific.png	8	reveal.png	5	0	0	0	0
1	testBlock	present_trial	3	33	yes_4	im0000041.jpg	im0000050.jpg	2	N_1.png	1	N_2.png	2	N_3.png	3	N_4.png	4	Y_1.png	1	Y_2.png	2	Y_3.png	3	Y_4.png	4	response_G.png	3	response_S.png	4	Word 50 of 6	1	Image 50 of 40	1	very_global.png	7	very_specific.png	6	less_global.png	9	less_specific.png	8	reveal.png	5	sand	1
1	testBlock	centre_mouse	4	36	reveal	im0000041.jpg	N_1.png	1	N_2.png	2	N_3.png	3	N_4.png	4	Y_1.png	1	Y_2.png	2	Y_3.png	3	Y_4.png	4	response_G.png	3	response_S.png	4	Word 50 of 6	1	Image 50 of 40	1	very_global.png	7	very_specific.png	6	less_global.png	9	less_specific.png	8	reveal.png	5	0	0	0	0
1	testBlock	present_trial	5	59	no_4	im0000050.jpg	im0000332.jpg	32	N_1.png	1	N_2.png	2	N_3.png	3	N_4.png	4	Y_1.png	1	Y_2.png	2	Y_3.png	3	Y_4.png	4	response_G.png	3	response_S.png	4	Word 51 of 6	1	Image 51 of 40	1	very_global.png	7	very_specific.png	6	less_global.png	9	less_specific.png	8	reveal.png	5	rock	2
1	testBlock	centre_mouse	6	53	reveal	im0000050.jpg	N_1.png	1	N_2.png	2	N_3.png	3	N_4.png	4	Y_1.png	1	Y_2.png	2	Y_3.png	3	Y_4.png	4	response_G.png	3	response_S.png	4	Word 51 of 6	1	Image 51 of 40	1	very_global.png	7	very_specific.png	6	less_global.png	9	less_specific.png	8	reveal.png	5	0	0	0	0
1	testBlock	present_trial	7	44	yes_4	im0000332.jpg	im0000313.jpg	30	N_1.png	1	N_2.png	2	N_3.png	3	N_4.png	4	Y_1.png	1	Y_2.png	2	Y_3.png	3	Y_4.png	4	response_G.png	3	response_S.png	4	Word 52 of 6	1	Image 52 of 40	1	very_global.png	7	very_specific.png	6	less_global.png	9	less_specific.png	8	reveal.png	5	mountain	4
1	testBlock	centre_mouse	8	51	reveal	im0000332.jpg	N_1.png	1	N_2.png	2	N_3.png	3	N_4.png	4	Y_1.png	1	Y_2.png	2	Y_3.png	3	Y_4.png	4	response_G.png	3	response_S.png	4	Word 52 of 6	1	Image 52 of 40	1	very_global.png	7	very_specific.png	6	less_global.png	9	less_specific.png	8	reveal.png	5	0	0	0	0
1	testBlock	present_trial	9	38	no_4	im0000313.jpg	im0000393.jpg	39	N_1.png	1	N_2.png	2	N_3.png	3	N_4.png	4	Y_1.png	1	Y_2.png	2	Y_3.png	3	Y_4.png	4	response_G.png	3	response_S.png	4	Word 53 of 6	1	Image 53 of 40	1	very_global.png	7	very_specific.png	6	less_global.png	9	less_specific.png	8	reveal.png	5	island	6
1	testBlock	centre_mouse	10	24	reveal	im0000313.jpg	N_1.png	1	N_2.png	2	N_3.png	3	N_4.png	4	Y_1.png	1	Y_2.png	2	Y_3.png	3	Y_4.png	4	response_G.png	3	response_S.png	4	Word 53 of 6	1	Image 53 of 40	1	very_global.png	7	very_specific.png	6	less_global.png	9	less_specific.png	8	reveal.png	5	0	0	0	0
1	testBlock	present_trial	11	49	no_4	im0000393.jpg	im0000355.jpg	35	N_1.png	1	N_2.png	2	N_3.png	3	N_4.png	4	Y_1.png	1	Y_2.png	2	Y_3.png	3	Y_4.png	4	response_G.png	3	response_S.png	4	Word 54 of 6	1	Image 54 of 40	1	very_global.png	7	very_specific.png	6	less_global.png	9	less_specific.png	8	reveal.png	5	water	3
1	testBlock	centre_mouse	12	54	reveal	im0000393.jpg	N_1.png	1	N_2.png	2	N_3.png	3	N_4.png	4	Y_1.png	1	Y_2.png	2	Y_3.png	3	Y_4.png	4	response_G.png	3	response_S.png	4	Word 54 of 6	1	Image 54 of 40	1	very_global.png	7	very_specific.png	6	less_global.png	9	less_specific.png	8	reveal.png	5	0	0	0	0
1	testBlock	present_trial	1	30	yes_3	im0000355.jpg	im0000308.jpg	29	N_1.png	1	N_2.png	2	N_3.png	3	N_4.png	4	Y_1.png	1	Y_2.png	2	Y_3.png	3	Y_4.png	4	response_G.png	3	response_S.png	4	Word 55 of 6	1	Image 55 of 40	1	very_global.png	7	very_specific.png	6	less_global.png	9	less_specific.png	8	reveal.png	5	shoping-cart	4
1	testBlock	centre_mouse	2	52	reveal	im0000355.jpg	N_1.png	1	N_2.png	2	N_3.png	3	N_4.png	4	Y_1.png	1	Y_2.png	2	Y_3.png	3	Y_4.png	4	response_G.png	3	response_S.png	4	Word 55 of 6	1	Image 55 of 40	1	very_global.png	7	very_specific.png	6	less_global.png	9	less_specific.png	8	reveal.png	5	0	0	0	0
1	testBlock	present_trial	3	39	yes_1	im0000308.jpg	im0000109.jpg	10	N_1.png	1	N_2.png	2	N_3.png	3	N_4.png	4	Y_1.png	1	Y_2.png	2	Y_3.png	3	Y_4.png	4	response_G.png	3	response_S.png	4	Word 56 of 6	1	Image 56 of 40	1	very_global.png	7	very_specific.png	6	less_global.png	9	less_specific.png	8	reveal.png	5	shop	1
1	testBlock	centre_mouse	4	43	reveal	im0000308.jpg	N_1.png	1	N_2.png	2	N_3.png	3	N_4.png	4	Y_1.png	1	Y_2.png	2	Y_3.png	3	Y_4.png	4	response_G.png	3	response_S.png	4	Word 56 of 6	1	Image 56 of 40	1	very_global.png	7	very_specific.png	6	less_global.png	9	less_specific.png	8	reveal.png	5	0	0	0	0
1	testBlock	present_trial	5	26	yes_3	im0000109.jpg	im0000084.jpg	6	N_1.png	1	N_2.png	2	N_3.png	3	N_4.png	4	Y_1.png	1	Y_2.png	2	Y_3.png	3	Y_4.png	4	response_G.png	3	response_S.png	4	Word 57 of 6	1	Image 57 of 40	1	very_global.png	7	very_specific.png	6	less_global.png	9	less_specific.png	8	reveal.png	5	shelf	5
1	testBlock	centre_mouse	6	50	reveal	im0000109.jpg	N_1.png	1	N_2.png	2	N_3.png	3	N_4.png	4	Y_1.png	1	Y_2.png	2	Y_3.png	3	Y_4.png	4	response_G.png	3	response_S.png	4	Word 57 of 6	1	Image 57 of 40	1	very_global.png	7	very_specific.png	6	less_global.png	9	less_specific.png	8	reveal.png	5	0	0	0	0
1	testBlock	present_trial	7	30	no_2	im0000084.jpg	im0000268.jpg	24	N_1.png	1	N_2.png	2	N_3.png	3	N_4.png	4	Y_1.png	1	Y_2.png	2	Y_3.png	3	Y_4.png	4	response_G.png	3	response_S.png	4	Word 58 of 6	1	Image 58 of 40	1	very_global.png	7	very_specific.png	6	less_global.png	9	less_specific.png	8	reveal.png	5	cart	2
1	testBlock	centre_mouse	8	45	reveal	im0000084.jpg	N_1.png	1	N_2.png	2	N_3.png	3	N_4.png	4	Y_1.png	1	Y_2.png	2	Y_3.png	3	Y_4.png	4	response_G.png	3	response_S.png	4	Word 58 of 6	1	Image 58 of 40	1	very_global.png	7	very_specific.png	6	less_global.png	9	less_specific.png	8	reveal.png	5	0	0	0	0
1	testBlock	present_trial	9	56	yes_1	im0000268.jpg	im0000056.jpg	3	N_1.png	1	N_2.png	2	N_3.png	3	N_4.png	4	Y_1.png	1	Y_2.png	2	Y_3.png	3	Y_4.png	4	response_G.png	3	response_S.png	4	Word 59 of 6	1	Image 59 of 40	1	very_global.png	7	very_specific.png	6	less_global.png	9	less_specific.png	8	reveal.png	5	people	6
1	testBlock	centre_mouse	10	33	reveal	im0000268.jpg	N_1.png	1	N_2.png	2	N_3.png	3	N_4.png	4	Y_1.png	1	Y_2.png	2	Y_3.png	3	Y_4.png	4	response_G.png	3	response_S.png	4	Word 59 of 6	1	Image 59 of 40	1	very_global.png	7	very_specific.png	6	less_global.png	9	less_specific.png	8	reveal.png	5	0	0	0	0
1	testBlock	present_trial	11	35	yes_2	im0000056.jpg	im0000239.jpg	19	N_1.png	1	N_2.png	2	N_3.png	3	N_4.png	4	Y_1.png	1	Y_2.png	2	Y_3.png	3	Y_4.png	4	response_G.png	3	response_S.png	4	Word 60 of 6	1	Image 60 of 40	1	very_global.png	7	very_specific.png	6	less_global.png	9	less_specific.png	8	reveal.png	5	person	3
1	testBlock	centre_mouse	12	44	reveal	im0000056.jpg	N_1.png	1	N_2.png	2	N_3.png	3	N_4.png	4	Y_1.png	1	Y_2.png	2	Y_3.png	3	Y_4.png	4	response_G.png	3	response_S.png	4	Word 60 of 6	1	Image 60 of 40	1	very_global.png	7	very_specific.png	6	less_global.png	9	less_specific.png	8	reveal.png	5	0	0	0	0
1	testBlock	present_trial	1	66	yes_4	im0000239.jpg	im0000376.jpg	36	N_1.png	1	N_2.png	2	N_3.png	3	N_4.png	4	Y_1.png	1	Y_2.png	2	Y_3.png	3	Y_4.png	4	response_G.png	3	response_S.png	4	Word 61 of 6	1	Image 61 of 40	1	very_global.png	7	very_specific.png	6	less_global.png	9	less_specific.png	8	reveal.png	5	farm	3
1	testBlock	centre_mouse	2	38	reveal	im0000239.jpg	N_1.png	1	N_2.png	2	N_3.png	3	N_4.png	4	Y_1.png	1	Y_2.png	2	Y_3.png	3	Y_4.png	4	response_G.png	3	response_S.png	4	Word 61 of 6	1	Image 61 of 40	1	very_global.png	7	very_specific.png	6	less_global.png	9	less_specific.png	8	reveal.png	5	0	0	0	0
1	testBlock	present_trial	3	54	no_1	im0000376.jpg	im0000177.jpg	14	N_1.png	1	N_2.png	2	N_3.png	3	N_4.png	4	Y_1.png	1	Y_2.png	2	Y_3.png	3	Y_4.png	4	response_G.png	3	response_S.png	4	Word 62 of 6	1	Image 62 of 40	1	very_global.png	7	very_specific.png	6	less_global.png	9	less_specific.png	8	reveal.png	5	work	6
1	testBlock	centre_mouse	4	53	reveal	im0000376.jpg	N_1.png	1	N_2.png	2	N_3.png	3	N_4.png	4	Y_1.png	1	Y_2.png	2	Y_3.png	3	Y_4.png	4	response_G.png	3	response_S.png	4	Word 62 of 6	1	Image 62 of 40	1	very_global.png	7	very_specific.png	6	less_global.png	9	less_specific.png	8	reveal.png	5	0	0	0	0
1	testBlock	present_trial	5	50	no_1	im0000177.jpg	im0000183.jpg	15	N_1.png	1	N_2.png	2	N_3.png	3	N_4.png	4	Y_1.png	1	Y_2.png	2	Y_3.png	3	Y_4.png	4	response_G.png	3	response_S.png	4	Word 63 of 6	1	Image 63 of 40	1	very_global.png	7	very_specific.png	6	less_global.png	9	less_specific.png	8	reveal.png	5	harvest	4
1	testBlock	centre_mouse	6	37	reveal	im0000177.jpg	N_1.png	1	N_2.png	2	N_3.png	3	N_4.png	4	Y_1.png	1	Y_2.png	2	Y_3.png	3	Y_4.png	4	response_G.png	3	response_S.png	4	Word 63 of 6	1	Image 63 of 40	1	very_global.png	7	very_specific.png	6	less_global.png	9	less_specific.png	8	reveal.png	5	0	0	0	0
1	testBlock	present_trial	7	41	yes_1	im0000183.jpg	im0000236.jpg	18	N_1.png	1	N_2.png	2	N_3.png	3	N_4.png	4	Y_1.png	1	Y_2.png	2	Y_3.png	3	Y_4.png	4	response_G.png	3	response_S.png	4	Word 64 of 6	1	Image 64 of 40	1	very_global.png	7	very_specific.png	6	less_global.png	9	less_specific.png	8	reveal.png	5	field	1
1	testBlock	centre_mouse	8	54	reveal	im0000183.jpg	N_1.png	1	N_2.png	2	N_3.png	3	N_4.png	4	Y_1.png	1	Y_2.png	2	Y_3.png	3	Y_4.png	4	response_G.png	3	response_S.png	4	Word 64 of 6	1	Image 64 of 40	1	very_global.png	7	very_specific.png	6	less_global.png	9	less_specific.png	8	reveal.png	5	0	0	0	0
1	testBlock	present_trial	9	37	no_2	im0000236.jpg	im0000333.jpg	33	N_1.png	1	N_2.png	2	N_3.png	3	N_4.png	4	Y_1.png	1	Y_2.png	2	Y_3.png	3	Y_4.png	4	response_G.png	3	response_S.png	4	Word 65 of 6	1	Image 65 of 40	1	very_global.png	7	very_specific.png	6	less_global.png	9	less_specific.png	8	reveal.png	5	sunny	5
1	testBlock	centre_mouse	10	40	reveal	im0000236.jpg	N_1.png	1	N_2.png	2	N_3.png	3	N_4.png	4	Y_1.png	1	Y_2.png	2	Y_3.png	3	Y_4.png	4	response_G.png	3	response_S.png	4	Word 65 of 6	1	Image 65 of 40	1	very_global.png	7	very_specific.png	6	less_global.png	9	less_specific.png	8	reveal.png	5	0	0	0	0
1	testBlock	present_trial	11	51	no_3	im0000333.jpg	im0000221.jpg	17	N_1.png	1	N_2.png	2	N_3.png	3	N_4.png	4	Y_1.png	1	Y_2.png	2	Y_3.png	3	Y_4.png	4	response_G.png	3	response_S.png	4	Word 66 of 6	1	Image 66 of 40	1	very_global.png	7	very_specific.png	6	less_global.png	9	less_specific.png	8	reveal.png	5	tractor	2
1	testBlock	centre_mouse	12	41	reveal	im0000333.jpg	N_1.png	1	N_2.png	2	N_3.png	3	N_4.png	4	Y_1.png	1	Y_2.png	2	Y_3.png	3	Y_4.png	4	response_G.png	3	response_S.png	4	Word 66 of 6	1	Image 66 of 40	1	very_global.png	7	very_specific.png	6	less_global.png	9	less_specific.png	8	reveal.png	5	0	0	0	0
1	testBlock	present_trial	1	41	yes_4	im0000221.jpg	im0000085.jpg	7	N_1.png	1	N_2.png	2	N_3.png	3	N_4.png	4	Y_1.png	1	Y_2.png	2	Y_3.png	3	Y_4.png	4	response_G.png	3	response_S.png	4	Word 67 of 6	1	Image 67 of 40	1	very_global.png	7	very_specific.png	6	less_global.png	9	less_specific.png	8	reveal.png	5	road	5
1	testBlock	centre_mouse	2	61	reveal	im0000221.jpg	N_1.png	1	N_2.png	2	N_3.png	3	N_4.png	4	Y_1.png	1	Y_2.png	2	Y_3.png	3	Y_4.png	4	response_G.png	3	response_S.png	4	Word 67 of 6	1	Image 67 of 40	1	very_global.png	7	very_specific.png	6	less_global.png	9	less_specific.png	8	reveal.png	5	0	0	0	0
1	testBlock	present_trial	3	49	yes_3	im0000085.jpg	im0000205.jpg	16	N_1.png	1	N_2.png	2	N_3.png	3	N_4.png	4	Y_1.png	1	Y_2.png	2	Y_3.png	3	Y_4.png	4	response_G.png	3	response_S.png	4	Word 68 of 6	1	Image 68 of 40	1	very_global.png	7	very_specific.png	6	less_global.png	9	less_specific.png	8	reveal.png	5	busy	3
1	testBlock	centre_mouse	4	42	reveal	im0000085.jpg	N_1.png	1	N_2.png	2	N_3.png	3	N_4.png	4	Y_1.png	1	Y_2.png	2	Y_3.png	3	Y_4.png	4	response_G.png	3	response_S.png	4	Word 68 of 6	1	Image 68 of 40	1	very_global.png	7	very_specific.png	6	less_global.png	9	less_specific.png	8	reveal.png	5	0	0	0	0
1	testBlock	present_trial	5	32	yes_4	im0000205.jpg	im0000126.jpg	12	N_1.png	1	N_2.png	2	N_3.png	3	N_4.png	4	Y_1.png	1	Y_2.png	2	Y_3.png	3	Y_4.png	4	response_G.png	3	response_S.png	4	Word 69 of 6	1	Image 69 of 40	1	very_global.png	7	very_specific.png	6	less_global.png	9	less_specific.png	8	reveal.png	5	corner	1
1	testBlock	centre_mouse	6	61	reveal	im0000205.jpg	N_1.png	1	N_2.png	2	N_3.png	3	N_4.png	4	Y_1.png	1	Y_2.png	2	Y_3.png	3	Y_4.png	4	response_G.png	3	response_S.png	4	Word 69 of 6	1	Image 69 of 40	1	very_global.png	7	very_specific.png	6	less_global.png	9	less_specific.png	8	reveal.png	5	0	0	0	0
1	testBlock	present_trial	7	48	yes_3	im0000126.jpg	im0000282.jpg	26	N_1.png	1	N_2.png	2	N_3.png	3	N_4.png	4	Y_1.png	1	Y_2.png	2	Y_3.png	3	Y_4.png	4	response_G.png	3	response_S.png	4	Word 70 of 6	1	Image 70 of 40	1	very_global.png	7	very_specific.png	6	less_global.png	9	less_specific.png	8	reveal.png	5	car	2
1	testBlock	centre_mouse	8	42	reveal	im0000126.jpg	N_1.png	1	N_2.png	2	N_3.png	3	N_4.png	4	Y_1.png	1	Y_2.png	2	Y_3.png	3	Y_4.png	4	response_G.png	3	response_S.png	4	Word 70 of 6	1	Image 70 of 40	1	very_global.png	7	very_specific.png	6	less_global.png	9	less_specific.png	8	reveal.png	5	0	0	0	0
1	testBlock	present_trial	9	59	yes_1	im0000282.jpg	im0000249.jpg	21	N_1.png	1	N_2.png	2	N_3.png	3	N_4.png	4	Y_1.png	1	Y_2.png	2	Y_3.png	3	Y_4.png	4	response_G.png	3	response_S.png	4	Word 71 of 6	1	Image 71 of 40	1	very_global.png	7	very_specific.png	6	less_global.png	9	less_specific.png	8	reveal.png	5	sidewalk	6
1	testBlock	centre_mouse	10	51	reveal	im0000282.jpg	N_1.png	1	N_2.png	2	N_3.png	3	N_4.png	4	Y_1.png	1	Y_2.png	2	Y_3.png	3	Y_4.png	4	response_G.png	3	response_S.png	4	Word 71 of 6	1	Image 71 of 40	1	very_global.png	7	very_specific.png	6	less_global.png	9	less_specific.png	8	reveal.png	5	0	0	0	0
1	testBlock	present_trial	11	51	yes_3	im0000249.jpg	im0000097.jpg	8	N_1.png	1	N_2.png	2	N_3.png	3	N_4.png	4	Y_1.png	1	Y_2.png	2	Y_3.png	3	Y_4.png	4	response_G.png	3	response_S.png	4	Word 72 of 6	1	Image 72 of 40	1	very_global.png	7	very_specific.png	6	less_global.png	9	less_specific.png	8	reveal.png	5	street	4
1	testBlock	centre_mouse	12	43	reveal	im0000249.jpg	N_1.png	1	N_2.png	2	N_3.png	3	N_4.png	4	Y_1.png	1	Y_2.png	2	Y_3.png	3	Y_4.png	4	response_G.png	3	response_S.png	4	Word 72 of 6	1	Image 72 of 40	1	very_global.png	7	very_specific.png	6	less_global.png	9	less_specific.png	8	reveal.png	5	0	0	0	0
1	testBlock	present_trial	1	39	no_3	im0000097.jpg	im0000245.jpg	20	N_1.png	1	N_2.png	2	N_3.png	3	N_4.png	4	Y_1.png	1	Y_2.png	2	Y_3.png	3	Y_4.png	4	response_G.png	3	response_S.png	4	Word 73 of 6	1	Image 73 of 40	1	very_global.png	7	very_specific.png	6	less_global.png	9	less_specific.png	8	reveal.png	5	flame	5
1	testBlock	centre_mouse	2	55	reveal	im0000097.jpg	N_1.png	1	N_2.png	2	N_3.png	3	N_4.png	4	Y_1.png	1	Y_2.png	2	Y_3.png	3	Y_4.png	4	response_G.png	3	response_S.png	4	Word 73 of 6	1	Image 73 of 40	1	very_global.png	7	very_specific.png	6	less_global.png	9	less_specific.png	8	reveal.png	5	0	0	0	0
1	testBlock	present_trial	3	52	yes_2	im0000245.jpg	im0000402.jpg	40	N_1.png	1	N_2.png	2	N_3.png	3	N_4.png	4	Y_1.png	1	Y_2.png	2	Y_3.png	3	Y_4.png	4	response_G.png	3	response_S.png	4	Word 74 of 6	1	Image 74 of 40	1	very_global.png	7	very_specific.png	6	less_global.png	9	less_specific.png	8	reveal.png	5	plasma	6
1	testBlock	centre_mouse	4	37	reveal	im0000245.jpg	N_1.png	1	N_2.png	2	N_3.png	3	N_4.png	4	Y_1.png	1	Y_2.png	2	Y_3.png	3	Y_4.png	4	response_G.png	3	response_S.png	4	Word 74 of 6	1	Image 74 of 40	1	very_global.png	7	very_specific.png	6	less_global.png	9	less_specific.png	8	reveal.png	5	0	0	0	0
1	testBlock	present_trial	5	44	no_4	im0000402.jpg	im0000063.jpg	4	N_1.png	1	N_2.png	2	N_3.png	3	N_4.png	4	Y_1.png	1	Y_2.png	2	Y_3.png	3	Y_4.png	4	response_G.png	3	response_S.png	4	Word 75 of 6	1	Image 75 of 40	1	very_global.png	7	very_specific.png	6	less_global.png	9	less_specific.png	8	reveal.png	5	volcano	4
1	testBlock	centre_mouse	6	34	reveal	im0000402.jpg	N_1.png	1	N_2.png	2	N_3.png	3	N_4.png	4	Y_1.png	1	Y_2.png	2	Y_3.png	3	Y_4.png	4	response_G.png	3	response_S.png	4	Word 75 of 6	1	Image 75 of 40	1	very_global.png	7	very_specific.png	6	less_global.png	9	less_specific.png	8	reveal.png	5	0	0	0	0
1	testBlock	present_trial	7	43	no_1	im0000063.jpg	im0000113.jpg	11	N_1.png	1	N_2.png	2	N_3.png	3	N_4.png	4	Y_1.png	1	Y_2.png	2	Y_3.png	3	Y_4.png	4	response_G.png	3	response_S.png	4	Word 76 of 6	1	Image 76 of 40	1	very_global.png	7	very_specific.png	6	less_global.png	9	less_specific.png	8	reveal.png	5	burn	3
1	testBlock	centre_mouse	8	55	reveal	im0000063.jpg	N_1.png	1	N_2.png	2	N_3.png	3	N_4.png	4	Y_1.png	1	Y_2.png	2	Y_3.png	3	Y_4.png	4	response_G.png	3	response_S.png	4	Word 76 of 6	1	Image 76 of 40	1	very_global.png	7	very_specific.png	6	less_global.png	9	less_specific.png	8	reveal.png	5	0	0	0	0
1	testBlock	present_trial	9	46	yes_4	im0000113.jpg	im0000260.jpg	22	N_1.png	1	N_2.png	2	N_3.png	3	N_4.png	4	Y_1.png	1	Y_2.png	2	Y_3.png	3	Y_4.png	4	response_G.png	3	response_S.png	4	Word 77 of 6	1	Image 77 of 40	1	very_global.png	7	very_specific.png	6	less_global.png	9	less_specific.png	8	reveal.png	5	fire	2
1	testBlock	centre_mouse	10	51	reveal	im0000113.jpg	N_1.png	1	N_2.png	2	N_3.png	3	N_4.png	4	Y_1.png	1	Y_2.png	2	Y_3.png	3	Y_4.png	4	response_G.png	3	response_S.png	4	Word 77 of 6	1	Image 77 of 40	1	very_global.png	7	very_specific.png	6	less_global.png	9	less_specific.png	8	reveal.png	5	0	0	0	0
1	testBlock	present_trial	11	38	yes_2	im0000260.jpg	im0000277.jpg	25	N_1.png	1	N_2.png	2	N_3.png	3	N_4.png	4	Y_1.png	1	Y_2.png	2	Y_3.png	3	Y_4.png	4	response_G.png	3	response_S.png	4	Word 78 of 6	1	Image 78 of 40	1	very_global.png	7	very_specific.png	6	less_global.png	9	less_specific.png	8	reveal.png	5	lava	1
1	testBlock	centre_mouse	12	53	reveal	im0000260.jpg	N_1.png	1	N_2.png	2	N_3.png	3	N_4.png	4	Y_1.png	1	Y_2.png	2	Y_3.png	3	Y_4.png	4	response_G.png	3	response_S.png	4	Word 78 of 6	1	Image 78 of 40	1	very_global.png	7	very_specific.png	6	less_global.png	9	less_specific.png	8	reveal.png	5	0	0	0	0
1	testBlock	present_trial	1	27	no_3	im0000277.jpg	im0000293.jpg	28	N_1.png	1	N_2.png	2	N_3.png	3	N_4.png	4	Y_1.png	1	Y_2.png	2	Y_3.png	3	Y_4.png	4	response_G.png	3	response_S.png	4	Word 79 of 6	1	Image 79 of 40	1	very_global.png	7	very_specific.png	6	less_global.png	9	less_specific.png	8	reveal.png	5	mother	2
1	testBlock	centre_mouse	2	25	reveal	im0000277.jpg	N_1.png	1	N_2.png	2	N_3.png	3	N_4.png	4	Y_1.png	1	Y_2.png	2	Y_3.png	3	Y_4.png	4	response_G.png	3	response_S.png	4	Word 79 of 6	1	Image 79 of 40	1	very_global.png	7	very_specific.png	6	less_global.png	9	less_specific.png	8	reveal.png	5	0	0	0	0
1	testBlock	present_trial	3	48	yes_2	im0000293.jpg	im0000069.jpg	5	N_1.png	1	N_2.png	2	N_3.png	3	N_4.png	4	Y_1.png	1	Y_2.png	2	Y_3.png	3	Y_4.png	4	response_G.png	3	response_S.png	4	Word 80 of 6	1	Image 80 of 40	1	very_global.png	7	very_specific.png	6	less_global.png	9	less_specific.png	8	reveal.png	5	garden	6
1	testBlock	centre_mouse	4	42	reveal	im0000293.jpg	N_1.png	1	N_2.png	2	N_3.png	3	N_4.png	4	Y_1.png	1	Y_2.png	2	Y_3.png	3	Y_4.png	4	response_G.png	3	response_S.png	4	Word 80 of 6	1	Image 80 of 40	1	very_global.png	7	very_specific.png	6	less_global.png	9	less_specific.png	8	reveal.png	5	0	0	0	0
1	testBlock	present_trial	5	37	yes_2	im0000069.jpg	im0000063.jpg	4	N_1.png	1	N_2.png	2	N_3.png	3	N_4.png	4	Y_1.png	1	Y_2.png	2	Y_3.png	3	Y_4.png	4	response_G.png	3	response_S.png	4	Word 81 of 6	1	Image 81 of 40	1	very_global.png	7	very_specific.png	6	less_global.png	9	less_specific.png	8	reveal.png	5	play	4
1	testBlock	centre_mouse	6	59	reveal	im0000069.jpg	N_1.png	1	N_2.png	2	N_3.png	3	N_4.png	4	Y_1.png	1	Y_2.png	2	Y_3.png	3	Y_4.png	4	response_G.png	3	response_S.png	4	Word 81 of 6	1	Image 81 of 40	1	very_global.png	7	very_specific.png	6	less_global.png	9	less_specific.png	8	reveal.png	5	0	0	0	0
1	testBlock	present_trial	7	33	yes_4	im0000063.jpg	im0000293.jpg	28	N_1.png	1	N_2.png	2	N_3.png	3	N_4.png	4	Y_1.png	1	Y_2.png	2	Y_3.png	3	Y_4.png	4	response_G.png	3	response_S.png	4	Word 82 of 6	1	Image 82 of 40	1	very_global.png	7	very_specific.png	6	less_global.png	9	less_specific.png	8	reveal.png	5	son	3
1	testBlock	centre_mouse	8	52	reveal	im0000063.jpg	N_1.png	1	N_2.png	2	N_3.png	3	N_4.png	4	Y_1.png	1	Y_2.png	2	Y_3.png	3	Y_4.png	4	response_G.png	3	response_S.png	4	Word 82 of 6	1	Image 82 of 40	1	very_global.png	7	very_specific.png	6	less_global.png	9	less_specific.png	8	reveal.png	5	0	0	0	0
1	testBlock	present_trial	9	31	yes_2	im0000293.jpg	im0000205.jpg	16	N_1.png	1	N_2.png	2	N_3.png	3	N_4.png	4	Y_1.png	1	Y_2.png	2	Y_3.png	3	Y_4.png	4	response_G.png	3	response_S.png	4	Word 83 of 6	1	Image 83 of 40	1	very_global.png	7	very_specific.png	6	less_global.png	9	less_specific.png	8	reveal.png	5	grass	1
1	testBlock	centre_mouse	10	47	reveal	im0000293.jpg	N_1.png	1	N_2.png	2	N_3.png	3	N_4.png	4	Y_1.png	1	Y_2.png	2	Y_3.png	3	Y_4.png	4	response_G.png	3	response_S.png	4	Word 83 of 6	1	Image 83 of 40	1	very_global.png	7	very_specific.png	6	less_global.png	9	less_specific.png	8	reveal.png	5	0	0	0	0
1	testBlock	present_trial	11	41	no_3	im0000205.jpg	im0000277.jpg	25	N_1.png	1	N_2.png	2	N_3.png	3	N_4.png	4	Y_1.png	1	Y_2.png	2	Y_3.png	3	Y_4.png	4	response_G.png	3	response_S.png	4	Word 84 of 6	1	Image 84 of 40	1	very_global.png	7	very_specific.png	6	less_global.png	9	less_specific.png	8	reveal.png	5	boy	5
1	testBlock	centre_mouse	12	75	reveal	im0000205.jpg	N_1.png	1	N_2.png	2	N_3.png	3	N_4.png	4	Y_1.png	1	Y_2.png	2	Y_3.png	3	Y_4.png	4	response_G.png	3	response_S.png	4	Word 84 of 6	1	Image 84 of 40	1	very_global.png	7	very_specific.png	6	less_global.png	9	less_specific.png	8	reveal.png	5	0	0	0	0
1	testBlock	present_trial	1	37	yes_2	im0000277.jpg	im0000341.jpg	34	N_1.png	1	N_2.png	2	N_3.png	3	N_4.png	4	Y_1.png	1	Y_2.png	2	Y_3.png	3	Y_4.png	4	response_G.png	3	response_S.png	4	Word 85 of 6	1	Image 85 of 40	1	very_global.png	7	very_specific.png	6	less_global.png	9	less_specific.png	8	reveal.png	5	garden	6
1	testBlock	centre_mouse	2	51	reveal	im0000277.jpg	N_1.png	1	N_2.png	2	N_3.png	3	N_4.png	4	Y_1.png	1	Y_2.png	2	Y_3.png	3	Y_4.png	4	response_G.png	3	response_S.png	4	Word 85 of 6	1	Image 85 of 40	1	very_global.png	7	very_specific.png	6	less_global.png	9	less_specific.png	8	reveal.png	5	0	0	0	0
1	testBlock	present_trial	3	47	no_4	im0000341.jpg	im0000261.jpg	23	N_1.png	1	N_2.png	2	N_3.png	3	N_4.png	4	Y_1.png	1	Y_2.png	2	Y_3.png	3	Y_4.png	4	response_G.png	3	response_S.png	4	Word 86 of 6	1	Image 86 of 40	1	very_global.png	7	very_specific.png	6	less_global.png	9	less_specific.png	8	reveal.png	5	mother	2
1	testBlock	centre_mouse	4	42	reveal	im0000341.jpg	N_1.png	1	N_2.png	2	N_3.png	3	N_4.png	4	Y_1.png	1	Y_2.png	2	Y_3.png	3	Y_4.png	4	response_G.png	3	response_S.png	4	Word 86 of 6	1	Image 86 of 40	1	very_global.png	7	very_specific.png	6	less_global.png	9	less_specific.png	8	reveal.png	5	0	0	0	0
1	testBlock	present_trial	5	50	yes_3	im0000261.jpg	im0000183.jpg	15	N_1.png	1	N_2.png	2	N_3.png	3	N_4.png	4	Y_1.png	1	Y_2.png	2	Y_3.png	3	Y_4.png	4	response_G.png	3	response_S.png	4	Word 87 of 6	1	Image 87 of 40	1	very_global.png	7	very_specific.png	6	less_global.png	9	less_specific.png	8	reveal.png	5	boy	5
1	testBlock	centre_mouse	6	40	reveal	im0000261.jpg	N_1.png	1	N_2.png	2	N_3.png	3	N_4.png	4	Y_1.png	1	Y_2.png	2	Y_3.png	3	Y_4.png	4	response_G.png	3	response_S.png	4	Word 87 of 6	1	Image 87 of 40	1	very_global.png	7	very_specific.png	6	less_global.png	9	less_specific.png	8	reveal.png	5	0	0	0	0
1	testBlock	present_trial	7	39	no_4	im0000183.jpg	im0000245.jpg	20	N_1.png	1	N_2.png	2	N_3.png	3	N_4.png	4	Y_1.png	1	Y_2.png	2	Y_3.png	3	Y_4.png	4	response_G.png	3	response_S.png	4	Word 88 of 6	1	Image 88 of 40	1	very_global.png	7	very_specific.png	6	less_global.png	9	less_specific.png	8	reveal.png	5	son	3
1	testBlock	centre_mouse	8	44	reveal	im0000183.jpg	N_1.png	1	N_2.png	2	N_3.png	3	N_4.png	4	Y_1.png	1	Y_2.png	2	Y_3.png	3	Y_4.png	4	response_G.png	3	response_S.png	4	Word 88 of 6	1	Image 88 of 40	1	very_global.png	7	very_specific.png	6	less_global.png	9	less_specific.png	8	reveal.png	5	0	0	0	0
1	testBlock	present_trial	9	25	no_2	im0000245.jpg	im0000282.jpg	26	N_1.png	1	N_2.png	2	N_3.png	3	N_4.png	4	Y_1.png	1	Y_2.png	2	Y_3.png	3	Y_4.png	4	response_G.png	3	response_S.png	4	Word 89 of 6	1	Image 89 of 40	1	very_global.png	7	very_specific.png	6	less_global.png	9	less_specific.png	8	reveal.png	5	grass	1
1	testBlock	centre_mouse	10	61	reveal	im0000245.jpg	N_1.png	1	N_2.png	2	N_3.png	3	N_4.png	4	Y_1.png	1	Y_2.png	2	Y_3.png	3	Y_4.png	4	response_G.png	3	response_S.png	4	Word 89 of 6	1	Image 89 of 40	1	very_global.png	7	very_specific.png	6	less_global.png	9	less_specific.png	8	reveal.png	5	0	0	0	0
1	testBlock	present_trial	11	32	no_4	im0000282.jpg	im0000308.jpg	29	N_1.png	1	N_2.png	2	N_3.png	3	N_4.png	4	Y_1.png	1	Y_2.png	2	Y_3.png	3	Y_4.png	4	response_G.png	3	response_S.png	4	Word 90 of 6	1	Image 90 of 40	1	very_global.png	7	very_specific.png	6	less_global.png	9	less_specific.png	8	reveal.png	5	play	4
1	testBlock	centre_mouse	12	58	reveal	im0000282.jpg	N_1.png	1	N_2.png	2	N_3.png	3	N_4.png	4	Y_1.png	1	Y_2.png	2	Y_3.png	3	Y_4.png	4	response_G.png	3	response_S.png	4	Word 90 of 6	1	Image 90 of 40	1	very_global.png	7	very_specific.png	6	less_global.png	9	less_specific.png	8	reveal.png	5	0	0	0	0
1	testBlock	present_trial	1	51	yes_3	im0000308.jpg	im0000355.jpg	35	N_1.png	1	N_2.png	2	N_3.png	3	N_4.png	4	Y_1.png	1	Y_2.png	2	Y_3.png	3	Y_4.png	4	response_G.png	3	response_S.png	4	Word 91 of 6	1	Image 91 of 40	1	very_global.png	7	very_specific.png	6	less_global.png	9	less_specific.png	8	reveal.png	5	build	6
1	testBlock	centre_mouse	2	11	reveal	im0000308.jpg	N_1.png	1	N_2.png	2	N_3.png	3	N_4.png	4	Y_1.png	1	Y_2.png	2	Y_3.png	3	Y_4.png	4	response_G.png	3	response_S.png	4	Word 91 of 6	1	Image 91 of 40	1	very_global.png	7	very_specific.png	6	less_global.png	9	less_specific.png	8	reveal.png	5	0	0	0	0
1	testBlock	present_trial	3	38	yes_2	im0000355.jpg	im0000390.jpg	38	N_1.png	1	N_2.png	2	N_3.png	3	N_4.png	4	Y_1.png	1	Y_2.png	2	Y_3.png	3	Y_4.png	4	response_G.png	3	response_S.png	4	Word 92 of 6	1	Image 92 of 40	1	very_global.png	7	very_specific.png	6	less_global.png	9	less_specific.png	8	reveal.png	5	car	3
1	testBlock	centre_mouse	4	40	reveal	im0000355.jpg	N_1.png	1	N_2.png	2	N_3.png	3	N_4.png	4	Y_1.png	1	Y_2.png	2	Y_3.png	3	Y_4.png	4	response_G.png	3	response_S.png	4	Word 92 of 6	1	Image 92 of 40	1	very_global.png	7	very_specific.png	6	less_global.png	9	less_specific.png	8	reveal.png	5	0	0	0	0
1	testBlock	present_trial	5	22	yes_4	im0000390.jpg	im0000236.jpg	18	N_1.png	1	N_2.png	2	N_3.png	3	N_4.png	4	Y_1.png	1	Y_2.png	2	Y_3.png	3	Y_4.png	4	response_G.png	3	response_S.png	4	Word 93 of 6	1	Image 93 of 40	1	very_global.png	7	very_specific.png	6	less_global.png	9	less_specific.png	8	reveal.png	5	street	1
1	testBlock	centre_mouse	6	53	reveal	im0000390.jpg	N_1.png	1	N_2.png	2	N_3.png	3	N_4.png	4	Y_1.png	1	Y_2.png	2	Y_3.png	3	Y_4.png	4	response_G.png	3	response_S.png	4	Word 93 of 6	1	Image 93 of 40	1	very_global.png	7	very_specific.png	6	less_global.png	9	less_specific.png	8	reveal.png	5	0	0	0	0
1	testBlock	present_trial	7	43	no_2	im0000236.jpg	im0000260.jpg	22	N_1.png	1	N_2.png	2	N_3.png	3	N_4.png	4	Y_1.png	1	Y_2.png	2	Y_3.png	3	Y_4.png	4	response_G.png	3	response_S.png	4	Word 94 of 6	1	Image 94 of 40	1	very_global.png	7	very_specific.png	6	less_global.png	9	less_specific.png	8	reveal.png	5	shop	2
1	testBlock	centre_mouse	8	66	reveal	im0000236.jpg	N_1.png	1	N_2.png	2	N_3.png	3	N_4.png	4	Y_1.png	1	Y_2.png	2	Y_3.png	3	Y_4.png	4	response_G.png	3	response_S.png	4	Word 94 of 6	1	Image 94 of 40	1	very_global.png	7	very_specific.png	6	less_global.png	9	less_specific.png	8	reveal.png	5	0	0	0	0
1	testBlock	present_trial	9	33	yes_2	im0000260.jpg	im0000084.jpg	6	N_1.png	1	N_2.png	2	N_3.png	3	N_4.png	4	Y_1.png	1	Y_2.png	2	Y_3.png	3	Y_4.png	4	response_G.png	3	response_S.png	4	Word 95 of 6	1	Image 95 of 40	1	very_global.png	7	very_specific.png	6	less_global.png	9	less_specific.png	8	reveal.png	5	people	5
1	testBlock	centre_mouse	10	38	reveal	im0000260.jpg	N_1.png	1	N_2.png	2	N_3.png	3	N_4.png	4	Y_1.png	1	Y_2.png	2	Y_3.png	3	Y_4.png	4	response_G.png	3	response_S.png	4	Word 95 of 6	1	Image 95 of 40	1	very_global.png	7	very_specific.png	6	less_global.png	9	less_specific.png	8	reveal.png	5	0	0	0	0
1	testBlock	present_trial	11	46	no_4	im0000084.jpg	im0000249.jpg	21	N_1.png	1	N_2.png	2	N_3.png	3	N_4.png	4	Y_1.png	1	Y_2.png	2	Y_3.png	3	Y_4.png	4	response_G.png	3	response_S.png	4	Word 96 of 6	1	Image 96 of 40	1	very_global.png	7	very_specific.png	6	less_global.png	9	less_specific.png	8	reveal.png	5	store	4
1	testBlock	centre_mouse	12	34	reveal	im0000084.jpg	N_1.png	1	N_2.png	2	N_3.png	3	N_4.png	4	Y_1.png	1	Y_2.png	2	Y_3.png	3	Y_4.png	4	response_G.png	3	response_S.png	4	Word 96 of 6	1	Image 96 of 40	1	very_global.png	7	very_specific.png	6	less_global.png	9	less_specific.png	8	reveal.png	5	0	0	0	0
1	testBlock	present_trial	1	37	no_4	im0000249.jpg	im0000376.jpg	36	N_1.png	1	N_2.png	2	N_3.png	3	N_4.png	4	Y_1.png	1	Y_2.png	2	Y_3.png	3	Y_4.png	4	response_G.png	3	response_S.png	4	Word 97 of 6	1	Image 97 of 40	1	very_global.png	7	very_specific.png	6	less_global.png	9	less_specific.png	8	reveal.png	5	helicopter	2
1	testBlock	centre_mouse	2	52	reveal	im0000249.jpg	N_1.png	1	N_2.png	2	N_3.png	3	N_4.png	4	Y_1.png	1	Y_2.png	2	Y_3.png	3	Y_4.png	4	response_G.png	3	response_S.png	4	Word 97 of 6	1	Image 97 of 40	1	very_global.png	7	very_specific.png	6	less_global.png	9	less_specific.png	8	reveal.png	5	0	0	0	0
1	testBlock	present_trial	3	46	yes_2	im0000376.jpg	im0000268.jpg	24	N_1.png	1	N_2.png	2	N_3.png	3	N_4.png	4	Y_1.png	1	Y_2.png	2	Y_3.png	3	Y_4.png	4	response_G.png	3	response_S.png	4	Word 98 of 6	1	Image 98 of 40	1	very_global.png	7	very_specific.png	6	less_global.png	9	less_specific.png	8	reveal.png	5	sky	1
1	testBlock	centre_mouse	4	55	reveal	im0000376.jpg	N_1.png	1	N_2.png	2	N_3.png	3	N_4.png	4	Y_1.png	1	Y_2.png	2	Y_3.png	3	Y_4.png	4	response_G.png	3	response_S.png	4	Word 98 of 6	1	Image 98 of 40	1	very_global.png	7	very_specific.png	6	less_global.png	9	less_specific.png	8	reveal.png	5	0	0	0	0
1	testBlock	present_trial	5	41	no_1	im0000268.jpg	im0000321.jpg	31	N_1.png	1	N_2.png	2	N_3.png	3	N_4.png	4	Y_1.png	1	Y_2.png	2	Y_3.png	3	Y_4.png	4	response_G.png	3	response_S.png	4	Word 99 of 6	1	Image 99 of 40	1	very_global.png	7	very_specific.png	6	less_global.png	9	less_specific.png	8	reveal.png	5	fly	3
1	testBlock	centre_mouse	6	63	reveal	im0000268.jpg	N_1.png	1	N_2.png	2	N_3.png	3	N_4.png	4	Y_1.png	1	Y_2.png	2	Y_3.png	3	Y_4.png	4	response_G.png	3	response_S.png	4	Word 99 of 6	1	Image 99 of 40	1	very_global.png	7	very_specific.png	6	less_global.png	9	less_specific.png	8	reveal.png	5	0	0	0	0
1	testBlock	present_trial	7	44	Ctrl+'Q'	im0000321.jpg	im0000069.jpg	5	N_1.png	1	N_2.png	2	N_3.png	3	N_4.png	4	Y_1.png	1	Y_2.png	2	Y_3.png	3	Y_4.png	4	response_G.png	3	response_S.png	4	Word 100 of 6	1	Image 100 of 40	1	very_global.png	7	very_specific.png	6	less_global.png	9	less_specific.png	8	reveal.png	5	pilot	6
1	reminder_practice	reminder_practice	1	52	reveal	placeholder_image	Click the center square to proceed to the PRACTICE trials	1	reveal.png	5	0	0	0	0	0	0	0	0	0	0	0	0	0	0	0	0	0	0	0	0	0	0	0	0	0	0	0	0	0	0	0	0	0	0
1	practiceBlock	practice_trial	1	28	no_3	Picture1.jpg	Picture1.jpg	1	N_1.png	1	N_2.png	2	N_3.png	3	N_4.png	4	Y_1.png	1	Y_2.png	2	Y_3.png	3	Y_4.png	4	response_G.png	3	response_S.png	4	Word 1 of 6	1	Image 0 of 40	1	very_global.png	7	very_specific.png	6	less_global.png	9	less_specific.png	8	reveal.png	5	outline	5
1	practiceBlock	centre_mouse	2	43	reveal	Picture1.jpg	N_1.png	1	N_2.png	2	N_3.png	3	N_4.png	4	Y_1.png	1	Y_2.png	2	Y_3.png	3	Y_4.png	4	response_G.png	3	response_S.png	4	Word 1 of 6	1	Image 0 of 40	1	very_global.png	7	very_specific.png	6	less_global.png	9	less_specific.png	8	reveal.png	5	0	0	0	0
1	practiceBlock	practice_trial	3	41	yes_1	Picture1.jpg	Picture3.jpg	3	N_1.png	1	N_2.png	2	N_3.png	3	N_4.png	4	Y_1.png	1	Y_2.png	2	Y_3.png	3	Y_4.png	4	response_G.png	3	response_S.png	4	Word 2 of 6	1	Image 0 of 40	1	very_global.png	7	very_specific.png	6	less_global.png	9	less_specific.png	8	reveal.png	5	black	4
1	practiceBlock	centre_mouse	4	57	reveal	Picture1.jpg	N_1.png	1	N_2.png	2	N_3.png	3	N_4.png	4	Y_1.png	1	Y_2.png	2	Y_3.png	3	Y_4.png	4	response_G.png	3	response_S.png	4	Word 2 of 6	1	Image 0 of 40	1	very_global.png	7	very_specific.png	6	less_global.png	9	less_specific.png	8	reveal.png	5	0	0	0	0
1	practiceBlock	practice_trial	5	38	yes_4	Picture3.jpg	Picture2.jpg	2	N_1.png	1	N_2.png	2	N_3.png	3	N_4.png	4	Y_1.png	1	Y_2.png	2	Y_3.png	3	Y_4.png	4	response_G.png	3	response_S.png	4	Word 3 of 6	1	Image 0 of 40	1	very_global.png	7	very_specific.png	6	less_global.png	9	less_specific.png	8	reveal.png	5	color	6
1	practiceBlock	centre_mouse	6	42	reveal	Picture3.jpg	N_1.png	1	N_2.png	2	N_3.png	3	N_4.png	4	Y_1.png	1	Y_2.png	2	Y_3.png	3	Y_4.png	4	response_G.png	3	response_S.png	4	Word 3 of 6	1	Image 0 of 40	1	very_global.png	7	very_specific.png	6	less_global.png	9	less_specific.png	8	reveal.png	5	0	0	0	0
1	practiceBlock	practice_trial	7	49	yes_4	Picture2.jpg	Picture2.jpg	2	N_1.png	1	N_2.png	2	N_3.png	3	N_4.png	4	Y_1.png	1	Y_2.png	2	Y_3.png	3	Y_4.png	4	response_G.png	3	response_S.png	4	Word 4 of 6	1	Image 0 of 40	1	very_global.png	7	very_specific.png	6	less_global.png	9	less_specific.png	8	reveal.png	5	love	2
1	practiceBlock	centre_mouse	8	31	reveal	Picture2.jpg	N_1.png	1	N_2.png	2	N_3.png	3	N_4.png	4	Y_1.png	1	Y_2.png	2	Y_3.png	3	Y_4.png	4	response_G.png	3	response_S.png	4	Word 4 of 6	1	Image 0 of 40	1	very_global.png	7	very_specific.png	6	less_global.png	9	less_specific.png	8	reveal.png	5	0	0	0	0
1	practiceBlock	practice_trial	9	39	no_4	Picture2.jpg	Picture1.jpg	1	N_1.png	1	N_2.png	2	N_3.png	3	N_4.png	4	Y_1.png	1	Y_2.png	2	Y_3.png	3	Y_4.png	4	response_G.png	3	response_S.png	4	Word 5 of 6	1	Image 0 of 40	1	very_global.png	7	very_specific.png	6	less_global.png	9	less_specific.png	8	reveal.png	5	red	3
1	practiceBlock	centre_mouse	10	39	reveal	Picture2.jpg	N_1.png	1	N_2.png	2	N_3.png	3	N_4.png	4	Y_1.png	1	Y_2.png	2	Y_3.png	3	Y_4.png	4	response_G.png	3	response_S.png	4	Word 5 of 6	1	Image 0 of 40	1	very_global.png	7	very_specific.png	6	less_global.png	9	less_specific.png	8	reveal.png	5	0	0	0	0
1	practiceBlock	practice_trial	11	33	no_2	Picture1.jpg	Picture3.jpg	3	N_1.png	1	N_2.png	2	N_3.png	3	N_4.png	4	Y_1.png	1	Y_2.png	2	Y_3.png	3	Y_4.png	4	response_G.png	3	response_S.png	4	Word 6 of 6	1	Image 0 of 40	1	very_global.png	7	very_specific.png	6	less_global.png	9	less_specific.png	8	reveal.png	5	heart	1
1	practiceBlock	centre_mouse	12	42	reveal	Picture1.jpg	N_1.png	1	N_2.png	2	N_3.png	3	N_4.png	4	Y_1.png	1	Y_2.png	2	Y_3.png	3	Y_4.png	4	response_G.png	3	response_S.png	4	Word 6 of 6	1	Image 0 of 40	1	very_global.png	7	very_specific.png	6	less_global.png	9	less_specific.png	8	reveal.png	5	0	0	0	0
1	practiceBlock	practice_trial	1	43	no_3	Picture3.jpg	Picture2.jpg	2	N_1.png	1	N_2.png	2	N_3.png	3	N_4.png	4	Y_1.png	1	Y_2.png	2	Y_3.png	3	Y_4.png	4	response_G.png	3	response_S.png	4	Word 7 of 6	1	Image 0 of 40	1	very_global.png	7	very_specific.png	6	less_global.png	9	less_specific.png	8	reveal.png	5	sun	2
1	practiceBlock	centre_mouse	2	47	reveal	Picture3.jpg	N_1.png	1	N_2.png	2	N_3.png	3	N_4.png	4	Y_1.png	1	Y_2.png	2	Y_3.png	3	Y_4.png	4	response_G.png	3	response_S.png	4	Word 7 of 6	1	Image 0 of 40	1	very_global.png	7	very_specific.png	6	less_global.png	9	less_specific.png	8	reveal.png	5	0	0	0	0
1	practiceBlock	practice_trial	3	24	no_2	Picture2.jpg	Picture1.jpg	1	N_1.png	1	N_2.png	2	N_3.png	3	N_4.png	4	Y_1.png	1	Y_2.png	2	Y_3.png	3	Y_4.png	4	response_G.png	3	response_S.png	4	Word 8 of 6	1	Image 0 of 40	1	very_global.png	7	very_specific.png	6	less_global.png	9	less_specific.png	8	reveal.png	5	blue	5
1	practiceBlock	centre_mouse	4	36	reveal	Picture2.jpg	N_1.png	1	N_2.png	2	N_3.png	3	N_4.png	4	Y_1.png	1	Y_2.png	2	Y_3.png	3	Y_4.png	4	response_G.png	3	response_S.png	4	Word 8 of 6	1	Image 0 of 40	1	very_global.png	7	very_specific.png	6	less_global.png	9	less_specific.png	8	reveal.png	5	0	0	0	0
1	practiceBlock	practice_trial	5	52	yes_1	Picture1.jpg	Picture3.jpg	3	N_1.png	1	N_2.png	2	N_3.png	3	N_4.png	4	Y_1.png	1	Y_2.png	2	Y_3.png	3	Y_4.png	4	response_G.png	3	response_S.png	4	Word 9 of 6	1	Image 0 of 40	1	very_global.png	7	very_specific.png	6	less_global.png	9	less_specific.png	8	reveal.png	5	sky	6
1	practiceBlock	centre_mouse	6	45	reveal	Picture1.jpg	N_1.png	1	N_2.png	2	N_3.png	3	N_4.png	4	Y_1.png	1	Y_2.png	2	Y_3.png	3	Y_4.png	4	response_G.png	3	response_S.png	4	Word 9 of 6	1	Image 0 of 40	1	very_global.png	7	very_specific.png	6	less_global.png	9	less_specific.png	8	reveal.png	5	0	0	0	0
1	practiceBlock	practice_trial	7	54	no_4	Picture3.jpg	Picture3.jpg	3	N_1.png	1	N_2.png	2	N_3.png	3	N_4.png	4	Y_1.png	1	Y_2.png	2	Y_3.png	3	Y_4.png	4	response_G.png	3	response_S.png	4	Word 10 of 6	1	Image 0 of 40	1	very_global.png	7	very_specific.png	6	less_global.png	9	less_specific.png	8	reveal.png	5	cloud	3
1	practiceBlock	centre_mouse	8	60	reveal	Picture3.jpg	N_1.png	1	N_2.png	2	N_3.png	3	N_4.png	4	Y_1.png	1	Y_2.png	2	Y_3.png	3	Y_4.png	4	response_G.png	3	response_S.png	4	Word 10 of 6	1	Image 0 of 40	1	very_global.png	7	very_specific.png	6	less_global.png	9	less_specific.png	8	reveal.png	5	0	0	0	0
1	practiceBlock	practice_trial	9	38	yes_2	Picture3.jpg	Picture1.jpg	1	N_1.png	1	N_2.png	2	N_3.png	3	N_4.png	4	Y_1.png	1	Y_2.png	2	Y_3.png	3	Y_4.png	4	response_G.png	3	response_S.png	4	Word 11 of 6	1	Image 0 of 40	1	very_global.png	7	very_specific.png	6	less_global.png	9	less_specific.png	8	reveal.png	5	mountain	1
1	practiceBlock	centre_mouse	10	68	reveal	Picture3.jpg	N_1.png	1	N_2.png	2	N_3.png	3	N_4.png	4	Y_1.png	1	Y_2.png	2	Y_3.png	3	Y_4.png	4	response_G.png	3	response_S.png	4	Word 11 of 6	1	Image 0 of 40	1	very_global.png	7	very_specific.png	6	less_global.png	9	less_specific.png	8	reveal.png	5	0	0	0	0
1	practiceBlock	practice_trial	11	46	no_4	Picture1.jpg	Picture2.jpg	2	N_1.png	1	N_2.png	2	N_3.png	3	N_4.png	4	Y_1.png	1	Y_2.png	2	Y_3.png	3	Y_4.png	4	response_G.png	3	response_S.png	4	Word 12 of 6	1	Image 0 of 40	1	very_global.png	7	very_specific.png	6	less_global.png	9	less_specific.png	8	reveal.png	5	landscape	4
1	practiceBlock	centre_mouse	12	60	reveal	Picture1.jpg	N_1.png	1	N_2.png	2	N_3.png	3	N_4.png	4	Y_1.png	1	Y_2.png	2	Y_3.png	3	Y_4.png	4	response_G.png	3	response_S.png	4	Word 12 of 6	1	Image 0 of 40	1	very_global.png	7	very_specific.png	6	less_global.png	9	less_specific.png	8	reveal.png	5	0	0	0	0
1	practiceBlock	practice_trial	1	24	no_2	Picture2.jpg	Picture2.jpg	2	N_1.png	1	N_2.png	2	N_3.png	3	N_4.png	4	Y_1.png	1	Y_2.png	2	Y_3.png	3	Y_4.png	4	response_G.png	3	response_S.png	4	Word 13 of 6	1	Image 0 of 40	1	very_global.png	7	very_specific.png	6	less_global.png	9	less_specific.png	8	reveal.png	5	emoji	6
1	practiceBlock	centre_mouse	2	54	reveal	Picture2.jpg	N_1.png	1	N_2.png	2	N_3.png	3	N_4.png	4	Y_1.png	1	Y_2.png	2	Y_3.png	3	Y_4.png	4	response_G.png	3	response_S.png	4	Word 13 of 6	1	Image 0 of 40	1	very_global.png	7	very_specific.png	6	less_global.png	9	less_specific.png	8	reveal.png	5	0	0	0	0
1	practiceBlock	practice_trial	3	41	yes_2	Picture2.jpg	Picture3.jpg	3	N_1.png	1	N_2.png	2	N_3.png	3	N_4.png	4	Y_1.png	1	Y_2.png	2	Y_3.png	3	Y_4.png	4	response_G.png	3	response_S.png	4	Word 14 of 6	1	Image 0 of 40	1	very_global.png	7	very_specific.png	6	less_global.png	9	less_specific.png	8	reveal.png	5	face	1
1	practiceBlock	centre_mouse	4	43	reveal	Picture2.jpg	N_1.png	1	N_2.png	2	N_3.png	3	N_4.png	4	Y_1.png	1	Y_2.png	2	Y_3.png	3	Y_4.png	4	response_G.png	3	response_S.png	4	Word 14 of 6	1	Image 0 of 40	1	very_global.png	7	very_specific.png	6	less_global.png	9	less_specific.png	8	reveal.png	5	0	0	0	0
1	practiceBlock	practice_trial	5	40	no_4	Picture3.jpg	Picture1.jpg	1	N_1.png	1	N_2.png	2	N_3.png	3	N_4.png	4	Y_1.png	1	Y_2.png	2	Y_3.png	3	Y_4.png	4	response_G.png	3	response_S.png	4	Word 15 of 6	1	Image 0 of 40	1	very_global.png	7	very_specific.png	6	less_global.png	9	less_specific.png	8	reveal.png	5	yellow	2
1	practiceBlock	centre_mouse	6	35	reveal	Picture3.jpg	N_1.png	1	N_2.png	2	N_3.png	3	N_4.png	4	Y_1.png	1	Y_2.png	2	Y_3.png	3	Y_4.png	4	response_G.png	3	response_S.png	4	Word 15 of 6	1	Image 0 of 40	1	very_global.png	7	very_specific.png	6	less_global.png	9	less_specific.png	8	reveal.png	5	0	0	0	0
1	practiceBlock	practice_trial	7	32	yes_3	Picture1.jpg	Picture1.jpg	1	N_1.png	1	N_2.png	2	N_3.png	3	N_4.png	4	Y_1.png	1	Y_2.png	2	Y_3.png	3	Y_4.png	4	response_G.png	3	response_S.png	4	Word 16 of 6	1	Image 0 of 40	1	very_global.png	7	very_specific.png	6	less_global.png	9	less_specific.png	8	reveal.png	5	smile	4
1	practiceBlock	centre_mouse	8	60	reveal	Picture1.jpg	N_1.png	1	N_2.png	2	N_3.png	3	N_4.png	4	Y_1.png	1	Y_2.png	2	Y_3.png	3	Y_4.png	4	response_G.png	3	response_S.png	4	Word 16 of 6	1	Image 0 of 40	1	very_global.png	7	very_specific.png	6	less_global.png	9	less_specific.png	8	reveal.png	5	0	0	0	0
1	practiceBlock	practice_trial	9	47	no_2	Picture1.jpg	Picture2.jpg	2	N_1.png	1	N_2.png	2	N_3.png	3	N_4.png	4	Y_1.png	1	Y_2.png	2	Y_3.png	3	Y_4.png	4	response_G.png	3	response_S.png	4	Word 17 of 6	1	Image 0 of 40	1	very_global.png	7	very_specific.png	6	less_global.png	9	less_specific.png	8	reveal.png	5	eyes	3
1	practiceBlock	centre_mouse	10	34	reveal	Picture1.jpg	N_1.png	1	N_2.png	2	N_3.png	3	N_4.png	4	Y_1.png	1	Y_2.png	2	Y_3.png	3	Y_4.png	4	response_G.png	3	response_S.png	4	Word 17 of 6	1	Image 0 of 40	1	very_global.png	7	very_specific.png	6	less_global.png	9	less_specific.png	8	reveal.png	5	0	0	0	0
1	practiceBlock	practice_trial	11	24	yes_1	Picture2.jpg	Picture3.jpg	3	N_1.png	1	N_2.png	2	N_3.png	3	N_4.png	4	Y_1.png	1	Y_2.png	2	Y_3.png	3	Y_4.png	4	response_G.png	3	response_S.png	4	Word 18 of 6	1	Image 0 of 40	1	very_global.png	7	very_specific.png	6	less_global.png	9	less_specific.png	8	reveal.png	5	happy	5
1	practiceBlock	centre_mouse	12	37	reveal	Picture2.jpg	N_1.png	1	N_2.png	2	N_3.png	3	N_4.png	4	Y_1.png	1	Y_2.png	2	Y_3.png	3	Y_4.png	4	response_G.png	3	response_S.png	4	Word 18 of 6	1	Image 0 of 40	1	very_global.png	7	very_specific.png	6	less_global.png	9	less_specific.png	8	reveal.png	5	0	0	0	0
1	reset	reset	1	200	0	Picture2.jpg	0	0	0	0	0	0	0	0	0	0	0	0	0	0	0	0	0	0	0	0	0	0	0	0	0	0	0	0	0	0	0	0	0	0	0	0	0	0
1	reminder_start	reminder_start	1	46	reveal	Picture2.jpg	Click the center square to proceed to the REAL trials	1	reveal.png	5	0	0	0	0	0	0	0	0	0	0	0	0	0	0	0	0	0	0	0	0	0	0	0	0	0	0	0	0	0	0	0	0	0	0
