subject	blockcode	trialcode	trialnum	latency	response	values.imageName	stimulusitem1	stimulusnumber1	stimulusitem2	stimulusnumber2	stimulusitem3	stimulusnumber3	stimulusitem4	stimulusnumber4	stimulusitem5	stimulusnumber5	stimulusitem6	stimulusnumber6	stimulusitem7	stimulusnumber7	stimulusitem8	stimulusnumber8	stimulusitem9	stimulusnumber9	stimulusitem10	stimulusnumber10	stimulusitem11	stimulusnumber11	stimulusitem12	stimulusnumber12	stimulusitem13	stimulusnumber13	stimulusitem14	stimulusnumber14	stimulusitem15	stimulusnumber15	stimulusitem16	stimulusnumber16	stimulusitem17	stimulusnumber17	stimulusitem18	stimulusnumber18	stimulusitem19	stimulusnumber19
1	reminder_practice	reminder_practice	1	49	reveal	placeholder_image	Click the center square to proceed to the PRACTICE trials	1	reveal.png	5	0	0	0	0	0	0	0	0	0	0	0	0	0	0	0	0	0	0	0	0	0	0	0	0	0	0	0	0	0	0	0	0	0	0
1	practiceBlock	practice	1	1	0	Picture1.jpg	+	1	Picture1.jpg	1	mask3.jpg	3	mask5.jpg	5	mask1.jpg	1	mask1.jpg	1	mask2.jpg	2	0	0	0	0	0	0	0	0	0	0	0	0	0	0	0	0	0	0	0	0	0	0	0	0
1	practiceBlock	centre_mouse	2	33	reveal	Picture1.jpg	N_1.png	1	N_2.png	2	N_3.png	3	N_4.png	4	Y_1.png	1	Y_2.png	2	Y_3.png	3	Y_4.png	4	confidence.png	1	guessing.png	2	respond_yes.png	3	respond_no.png	4	Word 0 of 12	1	Image 1 of 3	1	Definitely_NO.png	6	Definitely_YES.png	7	unsure_no.png	8	unsure_yes.png	9	reveal.png	5
1	practiceBlock	practice_trial	3	44	yes_4	Picture1.jpg	N_1.png	1	N_2.png	2	N_3.png	3	N_4.png	4	Y_1.png	1	Y_2.png	2	Y_3.png	3	Y_4.png	4	confidence.png	1	guessing.png	2	respond_yes.png	3	respond_no.png	4	Word 1 of 12	1	Image 1 of 3	1	Definitely_NO.png	6	Definitely_YES.png	7	unsure_no.png	8	unsure_yes.png	9	color	6
1	practiceBlock	centre_mouse	4	61	reveal	Picture1.jpg	N_1.png	1	N_2.png	2	N_3.png	3	N_4.png	4	Y_1.png	1	Y_2.png	2	Y_3.png	3	Y_4.png	4	confidence.png	1	guessing.png	2	respond_yes.png	3	respond_no.png	4	Word 1 of 12	1	Image 1 of 3	1	Definitely_NO.png	6	Definitely_YES.png	7	unsure_no.png	8	unsure_yes.png	9	reveal.png	5
1	practiceBlock	practice_absent	5	47	yes_1	Picture1.jpg	N_1.png	1	N_2.png	2	N_3.png	3	N_4.png	4	Y_1.png	1	Y_2.png	2	Y_3.png	3	Y_4.png	4	confidence.png	1	guessing.png	2	respond_yes.png	3	respond_no.png	4	Word 2 of 12	1	Image 1 of 3	1	Definitely_NO.png	6	Definitely_YES.png	7	unsure_no.png	8	unsure_yes.png	9	canine	9
1	practiceBlock	centre_mouse	6	58	reveal	Picture1.jpg	N_1.png	1	N_2.png	2	N_3.png	3	N_4.png	4	Y_1.png	1	Y_2.png	2	Y_3.png	3	Y_4.png	4	confidence.png	1	guessing.png	2	respond_yes.png	3	respond_no.png	4	Word 2 of 12	1	Image 1 of 3	1	Definitely_NO.png	6	Definitely_YES.png	7	unsure_no.png	8	unsure_yes.png	9	reveal.png	5
1	practiceBlock	practice_trial	7	41	no_4	Picture1.jpg	N_1.png	1	N_2.png	2	N_3.png	3	N_4.png	4	Y_1.png	1	Y_2.png	2	Y_3.png	3	Y_4.png	4	confidence.png	1	guessing.png	2	respond_yes.png	3	respond_no.png	4	Word 3 of 12	1	Image 1 of 3	1	Definitely_NO.png	6	Definitely_YES.png	7	unsure_no.png	8	unsure_yes.png	9	black	4
1	practiceBlock	centre_mouse	8	54	reveal	Picture1.jpg	N_1.png	1	N_2.png	2	N_3.png	3	N_4.png	4	Y_1.png	1	Y_2.png	2	Y_3.png	3	Y_4.png	4	confidence.png	1	guessing.png	2	respond_yes.png	3	respond_no.png	4	Word 3 of 12	1	Image 1 of 3	1	Definitely_NO.png	6	Definitely_YES.png	7	unsure_no.png	8	unsure_yes.png	9	reveal.png	5
1	practiceBlock	practice_trial	9	50	no_1	Picture1.jpg	N_1.png	1	N_2.png	2	N_3.png	3	N_4.png	4	Y_1.png	1	Y_2.png	2	Y_3.png	3	Y_4.png	4	confidence.png	1	guessing.png	2	respond_yes.png	3	respond_no.png	4	Word 4 of 12	1	Image 1 of 3	1	Definitely_NO.png	6	Definitely_YES.png	7	unsure_no.png	8	unsure_yes.png	9	love	2
1	practiceBlock	centre_mouse	10	32	reveal	Picture1.jpg	N_1.png	1	N_2.png	2	N_3.png	3	N_4.png	4	Y_1.png	1	Y_2.png	2	Y_3.png	3	Y_4.png	4	confidence.png	1	guessing.png	2	respond_yes.png	3	respond_no.png	4	Word 4 of 12	1	Image 1 of 3	1	Definitely_NO.png	6	Definitely_YES.png	7	unsure_no.png	8	unsure_yes.png	9	reveal.png	5
1	practiceBlock	practice_absent	11	36	yes_4	Picture1.jpg	N_1.png	1	N_2.png	2	N_3.png	3	N_4.png	4	Y_1.png	1	Y_2.png	2	Y_3.png	3	Y_4.png	4	confidence.png	1	guessing.png	2	respond_yes.png	3	respond_no.png	4	Word 5 of 12	1	Image 1 of 3	1	Definitely_NO.png	6	Definitely_YES.png	7	unsure_no.png	8	unsure_yes.png	9	smoke	5
1	practiceBlock	centre_mouse	12	31	reveal	Picture1.jpg	N_1.png	1	N_2.png	2	N_3.png	3	N_4.png	4	Y_1.png	1	Y_2.png	2	Y_3.png	3	Y_4.png	4	confidence.png	1	guessing.png	2	respond_yes.png	3	respond_no.png	4	Word 5 of 12	1	Image 1 of 3	1	Definitely_NO.png	6	Definitely_YES.png	7	unsure_no.png	8	unsure_yes.png	9	reveal.png	5
1	practiceBlock	practice_absent	13	41	no_2	Picture1.jpg	N_1.png	1	N_2.png	2	N_3.png	3	N_4.png	4	Y_1.png	1	Y_2.png	2	Y_3.png	3	Y_4.png	4	confidence.png	1	guessing.png	2	respond_yes.png	3	respond_no.png	4	Word 6 of 12	1	Image 1 of 3	1	Definitely_NO.png	6	Definitely_YES.png	7	unsure_no.png	8	unsure_yes.png	9	disco	1
1	practiceBlock	centre_mouse	14	49	reveal	Picture1.jpg	N_1.png	1	N_2.png	2	N_3.png	3	N_4.png	4	Y_1.png	1	Y_2.png	2	Y_3.png	3	Y_4.png	4	confidence.png	1	guessing.png	2	respond_yes.png	3	respond_no.png	4	Word 6 of 12	1	Image 1 of 3	1	Definitely_NO.png	6	Definitely_YES.png	7	unsure_no.png	8	unsure_yes.png	9	reveal.png	5
1	practiceBlock	practice_trial	15	35	no_3	Picture1.jpg	N_1.png	1	N_2.png	2	N_3.png	3	N_4.png	4	Y_1.png	1	Y_2.png	2	Y_3.png	3	Y_4.png	4	confidence.png	1	guessing.png	2	respond_yes.png	3	respond_no.png	4	Word 7 of 12	1	Image 1 of 3	1	Definitely_NO.png	6	Definitely_YES.png	7	unsure_no.png	8	unsure_yes.png	9	red	3
1	practiceBlock	centre_mouse	16	50	reveal	Picture1.jpg	N_1.png	1	N_2.png	2	N_3.png	3	N_4.png	4	Y_1.png	1	Y_2.png	2	Y_3.png	3	Y_4.png	4	confidence.png	1	guessing.png	2	respond_yes.png	3	respond_no.png	4	Word 7 of 12	1	Image 1 of 3	1	Definitely_NO.png	6	Definitely_YES.png	7	unsure_no.png	8	unsure_yes.png	9	reveal.png	5
1	practiceBlock	practice_absent	17	46	yes_2	Picture1.jpg	N_1.png	1	N_2.png	2	N_3.png	3	N_4.png	4	Y_1.png	1	Y_2.png	2	Y_3.png	3	Y_4.png	4	confidence.png	1	guessing.png	2	respond_yes.png	3	respond_no.png	4	Word 8 of 12	1	Image 1 of 3	1	Definitely_NO.png	6	Definitely_YES.png	7	unsure_no.png	8	unsure_yes.png	9	ceil	6
1	practiceBlock	centre_mouse	18	64	reveal	Picture1.jpg	N_1.png	1	N_2.png	2	N_3.png	3	N_4.png	4	Y_1.png	1	Y_2.png	2	Y_3.png	3	Y_4.png	4	confidence.png	1	guessing.png	2	respond_yes.png	3	respond_no.png	4	Word 8 of 12	1	Image 1 of 3	1	Definitely_NO.png	6	Definitely_YES.png	7	unsure_no.png	8	unsure_yes.png	9	reveal.png	5
1	practiceBlock	practice_trial	19	48	yes_3	Picture1.jpg	N_1.png	1	N_2.png	2	N_3.png	3	N_4.png	4	Y_1.png	1	Y_2.png	2	Y_3.png	3	Y_4.png	4	confidence.png	1	guessing.png	2	respond_yes.png	3	respond_no.png	4	Word 9 of 12	1	Image 1 of 3	1	Definitely_NO.png	6	Definitely_YES.png	7	unsure_no.png	8	unsure_yes.png	9	heart	1
1	practiceBlock	centre_mouse	20	47	reveal	Picture1.jpg	N_1.png	1	N_2.png	2	N_3.png	3	N_4.png	4	Y_1.png	1	Y_2.png	2	Y_3.png	3	Y_4.png	4	confidence.png	1	guessing.png	2	respond_yes.png	3	respond_no.png	4	Word 9 of 12	1	Image 1 of 3	1	Definitely_NO.png	6	Definitely_YES.png	7	unsure_no.png	8	unsure_yes.png	9	reveal.png	5
1	practiceBlock	practice_trial	21	39	no_4	Picture1.jpg	N_1.png	1	N_2.png	2	N_3.png	3	N_4.png	4	Y_1.png	1	Y_2.png	2	Y_3.png	3	Y_4.png	4	confidence.png	1	guessing.png	2	respond_yes.png	3	respond_no.png	4	Word 10 of 12	1	Image 1 of 3	1	Definitely_NO.png	6	Definitely_YES.png	7	unsure_no.png	8	unsure_yes.png	9	outline	5
1	practiceBlock	centre_mouse	22	48	reveal	Picture1.jpg	N_1.png	1	N_2.png	2	N_3.png	3	N_4.png	4	Y_1.png	1	Y_2.png	2	Y_3.png	3	Y_4.png	4	confidence.png	1	guessing.png	2	respond_yes.png	3	respond_no.png	4	Word 10 of 12	1	Image 1 of 3	1	Definitely_NO.png	6	Definitely_YES.png	7	unsure_no.png	8	unsure_yes.png	9	reveal.png	5
1	practiceBlock	practice_absent	23	42	no_1	Picture1.jpg	N_1.png	1	N_2.png	2	N_3.png	3	N_4.png	4	Y_1.png	1	Y_2.png	2	Y_3.png	3	Y_4.png	4	confidence.png	1	guessing.png	2	respond_yes.png	3	respond_no.png	4	Word 11 of 12	1	Image 1 of 3	1	Definitely_NO.png	6	Definitely_YES.png	7	unsure_no.png	8	unsure_yes.png	9	boat	2
1	practiceBlock	centre_mouse	24	58	reveal	Picture1.jpg	N_1.png	1	N_2.png	2	N_3.png	3	N_4.png	4	Y_1.png	1	Y_2.png	2	Y_3.png	3	Y_4.png	4	confidence.png	1	guessing.png	2	respond_yes.png	3	respond_no.png	4	Word 11 of 12	1	Image 1 of 3	1	Definitely_NO.png	6	Definitely_YES.png	7	unsure_no.png	8	unsure_yes.png	9	reveal.png	5
1	practiceBlock	practice_absent	25	28	no_1	Picture1.jpg	N_1.png	1	N_2.png	2	N_3.png	3	N_4.png	4	Y_1.png	1	Y_2.png	2	Y_3.png	3	Y_4.png	4	confidence.png	1	guessing.png	2	respond_yes.png	3	respond_no.png	4	Word 12 of 12	1	Image 1 of 3	1	Definitely_NO.png	6	Definitely_YES.png	7	unsure_no.png	8	unsure_yes.png	9	travel	7
1	practiceBlock	centre_mouse	26	64	reveal	Picture1.jpg	N_1.png	1	N_2.png	2	N_3.png	3	N_4.png	4	Y_1.png	1	Y_2.png	2	Y_3.png	3	Y_4.png	4	confidence.png	1	guessing.png	2	respond_yes.png	3	respond_no.png	4	Word 12 of 12	1	Image 1 of 3	1	Definitely_NO.png	6	Definitely_YES.png	7	unsure_no.png	8	unsure_yes.png	9	reveal.png	5
1	practiceBlock	practice	1	1	0	Picture1.jpg	+	1	Picture3.jpg	3	mask4.jpg	4	mask4.jpg	4	mask5.jpg	5	mask2.jpg	2	mask4.jpg	4	0	0	0	0	0	0	0	0	0	0	0	0	0	0	0	0	0	0	0	0	0	0	0	0
1	practiceBlock	centre_mouse	2	54	reveal	Picture1.jpg	N_1.png	1	N_2.png	2	N_3.png	3	N_4.png	4	Y_1.png	1	Y_2.png	2	Y_3.png	3	Y_4.png	4	confidence.png	1	guessing.png	2	respond_yes.png	3	respond_no.png	4	Word 0 of 12	1	Image 2 of 3	1	Definitely_NO.png	6	Definitely_YES.png	7	unsure_no.png	8	unsure_yes.png	9	reveal.png	5
1	practiceBlock	practice_trial	3	43	no_2	Picture3.jpg	N_1.png	1	N_2.png	2	N_3.png	3	N_4.png	4	Y_1.png	1	Y_2.png	2	Y_3.png	3	Y_4.png	4	confidence.png	1	guessing.png	2	respond_yes.png	3	respond_no.png	4	Word 1 of 12	1	Image 2 of 3	1	Definitely_NO.png	6	Definitely_YES.png	7	unsure_no.png	8	unsure_yes.png	9	blue	5
1	practiceBlock	centre_mouse	4	50	reveal	Picture3.jpg	N_1.png	1	N_2.png	2	N_3.png	3	N_4.png	4	Y_1.png	1	Y_2.png	2	Y_3.png	3	Y_4.png	4	confidence.png	1	guessing.png	2	respond_yes.png	3	respond_no.png	4	Word 1 of 12	1	Image 2 of 3	1	Definitely_NO.png	6	Definitely_YES.png	7	unsure_no.png	8	unsure_yes.png	9	reveal.png	5
1	practiceBlock	practice_trial	5	41	yes_4	Picture3.jpg	N_1.png	1	N_2.png	2	N_3.png	3	N_4.png	4	Y_1.png	1	Y_2.png	2	Y_3.png	3	Y_4.png	4	confidence.png	1	guessing.png	2	respond_yes.png	3	respond_no.png	4	Word 2 of 12	1	Image 2 of 3	1	Definitely_NO.png	6	Definitely_YES.png	7	unsure_no.png	8	unsure_yes.png	9	sky	6
1	practiceBlock	centre_mouse	6	38	reveal	Picture3.jpg	N_1.png	1	N_2.png	2	N_3.png	3	N_4.png	4	Y_1.png	1	Y_2.png	2	Y_3.png	3	Y_4.png	4	confidence.png	1	guessing.png	2	respond_yes.png	3	respond_no.png	4	Word 2 of 12	1	Image 2 of 3	1	Definitely_NO.png	6	Definitely_YES.png	7	unsure_no.png	8	unsure_yes.png	9	reveal.png	5
1	practiceBlock	practice_absent	7	44	no_1	Picture3.jpg	N_1.png	1	N_2.png	2	N_3.png	3	N_4.png	4	Y_1.png	1	Y_2.png	2	Y_3.png	3	Y_4.png	4	confidence.png	1	guessing.png	2	respond_yes.png	3	respond_no.png	4	Word 3 of 12	1	Image 2 of 3	1	Definitely_NO.png	6	Definitely_YES.png	7	unsure_no.png	8	unsure_yes.png	9	maple	3
1	practiceBlock	centre_mouse	8	57	reveal	Picture3.jpg	N_1.png	1	N_2.png	2	N_3.png	3	N_4.png	4	Y_1.png	1	Y_2.png	2	Y_3.png	3	Y_4.png	4	confidence.png	1	guessing.png	2	respond_yes.png	3	respond_no.png	4	Word 3 of 12	1	Image 2 of 3	1	Definitely_NO.png	6	Definitely_YES.png	7	unsure_no.png	8	unsure_yes.png	9	reveal.png	5
1	practiceBlock	practice_trial	9	41	yes_2	Picture3.jpg	N_1.png	1	N_2.png	2	N_3.png	3	N_4.png	4	Y_1.png	1	Y_2.png	2	Y_3.png	3	Y_4.png	4	confidence.png	1	guessing.png	2	respond_yes.png	3	respond_no.png	4	Word 4 of 12	1	Image 2 of 3	1	Definitely_NO.png	6	Definitely_YES.png	7	unsure_no.png	8	unsure_yes.png	9	landscape	4
1	practiceBlock	centre_mouse	10	51	reveal	Picture3.jpg	N_1.png	1	N_2.png	2	N_3.png	3	N_4.png	4	Y_1.png	1	Y_2.png	2	Y_3.png	3	Y_4.png	4	confidence.png	1	guessing.png	2	respond_yes.png	3	respond_no.png	4	Word 4 of 12	1	Image 2 of 3	1	Definitely_NO.png	6	Definitely_YES.png	7	unsure_no.png	8	unsure_yes.png	9	reveal.png	5
1	practiceBlock	practice_absent	11	47	yes_1	Picture3.jpg	N_1.png	1	N_2.png	2	N_3.png	3	N_4.png	4	Y_1.png	1	Y_2.png	2	Y_3.png	3	Y_4.png	4	confidence.png	1	guessing.png	2	respond_yes.png	3	respond_no.png	4	Word 5 of 12	1	Image 2 of 3	1	Definitely_NO.png	6	Definitely_YES.png	7	unsure_no.png	8	unsure_yes.png	9	red-bucket	10
1	practiceBlock	centre_mouse	12	45	reveal	Picture3.jpg	N_1.png	1	N_2.png	2	N_3.png	3	N_4.png	4	Y_1.png	1	Y_2.png	2	Y_3.png	3	Y_4.png	4	confidence.png	1	guessing.png	2	respond_yes.png	3	respond_no.png	4	Word 5 of 12	1	Image 2 of 3	1	Definitely_NO.png	6	Definitely_YES.png	7	unsure_no.png	8	unsure_yes.png	9	reveal.png	5
1	practiceBlock	practice_absent	13	20	yes_3	Picture3.jpg	N_1.png	1	N_2.png	2	N_3.png	3	N_4.png	4	Y_1.png	1	Y_2.png	2	Y_3.png	3	Y_4.png	4	confidence.png	1	guessing.png	2	respond_yes.png	3	respond_no.png	4	Word 6 of 12	1	Image 2 of 3	1	Definitely_NO.png	6	Definitely_YES.png	7	unsure_no.png	8	unsure_yes.png	9	telephone	4
1	practiceBlock	centre_mouse	14	52	reveal	Picture3.jpg	N_1.png	1	N_2.png	2	N_3.png	3	N_4.png	4	Y_1.png	1	Y_2.png	2	Y_3.png	3	Y_4.png	4	confidence.png	1	guessing.png	2	respond_yes.png	3	respond_no.png	4	Word 6 of 12	1	Image 2 of 3	1	Definitely_NO.png	6	Definitely_YES.png	7	unsure_no.png	8	unsure_yes.png	9	reveal.png	5
1	practiceBlock	practice_absent	15	35	yes_1	Picture3.jpg	N_1.png	1	N_2.png	2	N_3.png	3	N_4.png	4	Y_1.png	1	Y_2.png	2	Y_3.png	3	Y_4.png	4	confidence.png	1	guessing.png	2	respond_yes.png	3	respond_no.png	4	Word 7 of 12	1	Image 2 of 3	1	Definitely_NO.png	6	Definitely_YES.png	7	unsure_no.png	8	unsure_yes.png	9	pop	8
1	practiceBlock	centre_mouse	16	45	reveal	Picture3.jpg	N_1.png	1	N_2.png	2	N_3.png	3	N_4.png	4	Y_1.png	1	Y_2.png	2	Y_3.png	3	Y_4.png	4	confidence.png	1	guessing.png	2	respond_yes.png	3	respond_no.png	4	Word 7 of 12	1	Image 2 of 3	1	Definitely_NO.png	6	Definitely_YES.png	7	unsure_no.png	8	unsure_yes.png	9	reveal.png	5
1	practiceBlock	practice_absent	17	34	no_1	Picture3.jpg	N_1.png	1	N_2.png	2	N_3.png	3	N_4.png	4	Y_1.png	1	Y_2.png	2	Y_3.png	3	Y_4.png	4	confidence.png	1	guessing.png	2	respond_yes.png	3	respond_no.png	4	Word 8 of 12	1	Image 2 of 3	1	Definitely_NO.png	6	Definitely_YES.png	7	unsure_no.png	8	unsure_yes.png	9	red-bucket	10
1	practiceBlock	centre_mouse	18	47	reveal	Picture3.jpg	N_1.png	1	N_2.png	2	N_3.png	3	N_4.png	4	Y_1.png	1	Y_2.png	2	Y_3.png	3	Y_4.png	4	confidence.png	1	guessing.png	2	respond_yes.png	3	respond_no.png	4	Word 8 of 12	1	Image 2 of 3	1	Definitely_NO.png	6	Definitely_YES.png	7	unsure_no.png	8	unsure_yes.png	9	reveal.png	5
1	practiceBlock	practice_absent	19	32	yes_2	Picture3.jpg	N_1.png	1	N_2.png	2	N_3.png	3	N_4.png	4	Y_1.png	1	Y_2.png	2	Y_3.png	3	Y_4.png	4	confidence.png	1	guessing.png	2	respond_yes.png	3	respond_no.png	4	Word 9 of 12	1	Image 2 of 3	1	Definitely_NO.png	6	Definitely_YES.png	7	unsure_no.png	8	unsure_yes.png	9	boat	2
1	practiceBlock	centre_mouse	20	38	reveal	Picture3.jpg	N_1.png	1	N_2.png	2	N_3.png	3	N_4.png	4	Y_1.png	1	Y_2.png	2	Y_3.png	3	Y_4.png	4	confidence.png	1	guessing.png	2	respond_yes.png	3	respond_no.png	4	Word 9 of 12	1	Image 2 of 3	1	Definitely_NO.png	6	Definitely_YES.png	7	unsure_no.png	8	unsure_yes.png	9	reveal.png	5
1	practiceBlock	practice_trial	21	37	yes_3	Picture3.jpg	N_1.png	1	N_2.png	2	N_3.png	3	N_4.png	4	Y_1.png	1	Y_2.png	2	Y_3.png	3	Y_4.png	4	confidence.png	1	guessing.png	2	respond_yes.png	3	respond_no.png	4	Word 10 of 12	1	Image 2 of 3	1	Definitely_NO.png	6	Definitely_YES.png	7	unsure_no.png	8	unsure_yes.png	9	sun	2
1	practiceBlock	centre_mouse	22	53	reveal	Picture3.jpg	N_1.png	1	N_2.png	2	N_3.png	3	N_4.png	4	Y_1.png	1	Y_2.png	2	Y_3.png	3	Y_4.png	4	confidence.png	1	guessing.png	2	respond_yes.png	3	respond_no.png	4	Word 10 of 12	1	Image 2 of 3	1	Definitely_NO.png	6	Definitely_YES.png	7	unsure_no.png	8	unsure_yes.png	9	reveal.png	5
1	practiceBlock	practice_trial	23	41	yes_4	Picture3.jpg	N_1.png	1	N_2.png	2	N_3.png	3	N_4.png	4	Y_1.png	1	Y_2.png	2	Y_3.png	3	Y_4.png	4	confidence.png	1	guessing.png	2	respond_yes.png	3	respond_no.png	4	Word 11 of 12	1	Image 2 of 3	1	Definitely_NO.png	6	Definitely_YES.png	7	unsure_no.png	8	unsure_yes.png	9	mountain	1
1	practiceBlock	centre_mouse	24	68	reveal	Picture3.jpg	N_1.png	1	N_2.png	2	N_3.png	3	N_4.png	4	Y_1.png	1	Y_2.png	2	Y_3.png	3	Y_4.png	4	confidence.png	1	guessing.png	2	respond_yes.png	3	respond_no.png	4	Word 11 of 12	1	Image 2 of 3	1	Definitely_NO.png	6	Definitely_YES.png	7	unsure_no.png	8	unsure_yes.png	9	reveal.png	5
1	practiceBlock	practice_trial	25	1	yes_3	Picture3.jpg	N_1.png	1	N_2.png	2	N_3.png	3	N_4.png	4	Y_1.png	1	Y_2.png	2	Y_3.png	3	Y_4.png	4	confidence.png	1	guessing.png	2	respond_yes.png	3	respond_no.png	4	Word 12 of 12	1	Image 2 of 3	1	Definitely_NO.png	6	Definitely_YES.png	7	unsure_no.png	8	unsure_yes.png	9	cloud	3
1	practiceBlock	centre_mouse	26	63	reveal	Picture3.jpg	N_1.png	1	N_2.png	2	N_3.png	3	N_4.png	4	Y_1.png	1	Y_2.png	2	Y_3.png	3	Y_4.png	4	confidence.png	1	guessing.png	2	respond_yes.png	3	respond_no.png	4	Word 12 of 12	1	Image 2 of 3	1	Definitely_NO.png	6	Definitely_YES.png	7	unsure_no.png	8	unsure_yes.png	9	reveal.png	5
1	practiceBlock	practice	1	1	0	Picture3.jpg	+	1	Picture2.jpg	2	mask1.jpg	1	mask2.jpg	2	mask4.jpg	4	mask4.jpg	4	mask1.jpg	1	0	0	0	0	0	0	0	0	0	0	0	0	0	0	0	0	0	0	0	0	0	0	0	0
1	practiceBlock	centre_mouse	2	43	reveal	Picture3.jpg	N_1.png	1	N_2.png	2	N_3.png	3	N_4.png	4	Y_1.png	1	Y_2.png	2	Y_3.png	3	Y_4.png	4	confidence.png	1	guessing.png	2	respond_yes.png	3	respond_no.png	4	Word 0 of 12	1	Image 3 of 3	1	Definitely_NO.png	6	Definitely_YES.png	7	unsure_no.png	8	unsure_yes.png	9	reveal.png	5
1	practiceBlock	practice_trial	3	30	no_3	Picture2.jpg	N_1.png	1	N_2.png	2	N_3.png	3	N_4.png	4	Y_1.png	1	Y_2.png	2	Y_3.png	3	Y_4.png	4	confidence.png	1	guessing.png	2	respond_yes.png	3	respond_no.png	4	Word 1 of 12	1	Image 3 of 3	1	Definitely_NO.png	6	Definitely_YES.png	7	unsure_no.png	8	unsure_yes.png	9	yellow	2
1	practiceBlock	centre_mouse	4	35	reveal	Picture2.jpg	N_1.png	1	N_2.png	2	N_3.png	3	N_4.png	4	Y_1.png	1	Y_2.png	2	Y_3.png	3	Y_4.png	4	confidence.png	1	guessing.png	2	respond_yes.png	3	respond_no.png	4	Word 1 of 12	1	Image 3 of 3	1	Definitely_NO.png	6	Definitely_YES.png	7	unsure_no.png	8	unsure_yes.png	9	reveal.png	5
1	practiceBlock	practice_absent	5	37	yes_1	Picture2.jpg	N_1.png	1	N_2.png	2	N_3.png	3	N_4.png	4	Y_1.png	1	Y_2.png	2	Y_3.png	3	Y_4.png	4	confidence.png	1	guessing.png	2	respond_yes.png	3	respond_no.png	4	Word 2 of 12	1	Image 3 of 3	1	Definitely_NO.png	6	Definitely_YES.png	7	unsure_no.png	8	unsure_yes.png	9	disco	1
1	practiceBlock	centre_mouse	6	40	reveal	Picture2.jpg	N_1.png	1	N_2.png	2	N_3.png	3	N_4.png	4	Y_1.png	1	Y_2.png	2	Y_3.png	3	Y_4.png	4	confidence.png	1	guessing.png	2	respond_yes.png	3	respond_no.png	4	Word 2 of 12	1	Image 3 of 3	1	Definitely_NO.png	6	Definitely_YES.png	7	unsure_no.png	8	unsure_yes.png	9	reveal.png	5
1	practiceBlock	practice_absent	7	50	yes_2	Picture2.jpg	N_1.png	1	N_2.png	2	N_3.png	3	N_4.png	4	Y_1.png	1	Y_2.png	2	Y_3.png	3	Y_4.png	4	confidence.png	1	guessing.png	2	respond_yes.png	3	respond_no.png	4	Word 3 of 12	1	Image 3 of 3	1	Definitely_NO.png	6	Definitely_YES.png	7	unsure_no.png	8	unsure_yes.png	9	ceil	6
1	practiceBlock	centre_mouse	8	24	reveal	Picture2.jpg	N_1.png	1	N_2.png	2	N_3.png	3	N_4.png	4	Y_1.png	1	Y_2.png	2	Y_3.png	3	Y_4.png	4	confidence.png	1	guessing.png	2	respond_yes.png	3	respond_no.png	4	Word 3 of 12	1	Image 3 of 3	1	Definitely_NO.png	6	Definitely_YES.png	7	unsure_no.png	8	unsure_yes.png	9	reveal.png	5
1	practiceBlock	practice_absent	9	40	yes_1	Picture2.jpg	N_1.png	1	N_2.png	2	N_3.png	3	N_4.png	4	Y_1.png	1	Y_2.png	2	Y_3.png	3	Y_4.png	4	confidence.png	1	guessing.png	2	respond_yes.png	3	respond_no.png	4	Word 4 of 12	1	Image 3 of 3	1	Definitely_NO.png	6	Definitely_YES.png	7	unsure_no.png	8	unsure_yes.png	9	travel	7
1	practiceBlock	centre_mouse	10	36	reveal	Picture2.jpg	N_1.png	1	N_2.png	2	N_3.png	3	N_4.png	4	Y_1.png	1	Y_2.png	2	Y_3.png	3	Y_4.png	4	confidence.png	1	guessing.png	2	respond_yes.png	3	respond_no.png	4	Word 4 of 12	1	Image 3 of 3	1	Definitely_NO.png	6	Definitely_YES.png	7	unsure_no.png	8	unsure_yes.png	9	reveal.png	5
1	practiceBlock	practice_trial	11	54	yes_2	Picture2.jpg	N_1.png	1	N_2.png	2	N_3.png	3	N_4.png	4	Y_1.png	1	Y_2.png	2	Y_3.png	3	Y_4.png	4	confidence.png	1	guessing.png	2	respond_yes.png	3	respond_no.png	4	Word 5 of 12	1	Image 3 of 3	1	Definitely_NO.png	6	Definitely_YES.png	7	unsure_no.png	8	unsure_yes.png	9	smile	4
1	practiceBlock	centre_mouse	12	71	reveal	Picture2.jpg	N_1.png	1	N_2.png	2	N_3.png	3	N_4.png	4	Y_1.png	1	Y_2.png	2	Y_3.png	3	Y_4.png	4	confidence.png	1	guessing.png	2	respond_yes.png	3	respond_no.png	4	Word 5 of 12	1	Image 3 of 3	1	Definitely_NO.png	6	Definitely_YES.png	7	unsure_no.png	8	unsure_yes.png	9	reveal.png	5
1	practiceBlock	practice_trial	13	31	no_1	Picture2.jpg	N_1.png	1	N_2.png	2	N_3.png	3	N_4.png	4	Y_1.png	1	Y_2.png	2	Y_3.png	3	Y_4.png	4	confidence.png	1	guessing.png	2	respond_yes.png	3	respond_no.png	4	Word 6 of 12	1	Image 3 of 3	1	Definitely_NO.png	6	Definitely_YES.png	7	unsure_no.png	8	unsure_yes.png	9	happy	5
1	practiceBlock	centre_mouse	14	51	reveal	Picture2.jpg	N_1.png	1	N_2.png	2	N_3.png	3	N_4.png	4	Y_1.png	1	Y_2.png	2	Y_3.png	3	Y_4.png	4	confidence.png	1	guessing.png	2	respond_yes.png	3	respond_no.png	4	Word 6 of 12	1	Image 3 of 3	1	Definitely_NO.png	6	Definitely_YES.png	7	unsure_no.png	8	unsure_yes.png	9	reveal.png	5
1	practiceBlock	practice_absent	15	50	yes_4	Picture2.jpg	N_1.png	1	N_2.png	2	N_3.png	3	N_4.png	4	Y_1.png	1	Y_2.png	2	Y_3.png	3	Y_4.png	4	confidence.png	1	guessing.png	2	respond_yes.png	3	respond_no.png	4	Word 7 of 12	1	Image 3 of 3	1	Definitely_NO.png	6	Definitely_YES.png	7	unsure_no.png	8	unsure_yes.png	9	pop	8
1	practiceBlock	centre_mouse	16	36	reveal	Picture2.jpg	N_1.png	1	N_2.png	2	N_3.png	3	N_4.png	4	Y_1.png	1	Y_2.png	2	Y_3.png	3	Y_4.png	4	confidence.png	1	guessing.png	2	respond_yes.png	3	respond_no.png	4	Word 7 of 12	1	Image 3 of 3	1	Definitely_NO.png	6	Definitely_YES.png	7	unsure_no.png	8	unsure_yes.png	9	reveal.png	5
1	practiceBlock	practice_trial	17	36	no_1	Picture2.jpg	N_1.png	1	N_2.png	2	N_3.png	3	N_4.png	4	Y_1.png	1	Y_2.png	2	Y_3.png	3	Y_4.png	4	confidence.png	1	guessing.png	2	respond_yes.png	3	respond_no.png	4	Word 8 of 12	1	Image 3 of 3	1	Definitely_NO.png	6	Definitely_YES.png	7	unsure_no.png	8	unsure_yes.png	9	face	1
1	practiceBlock	centre_mouse	18	24	reveal	Picture2.jpg	N_1.png	1	N_2.png	2	N_3.png	3	N_4.png	4	Y_1.png	1	Y_2.png	2	Y_3.png	3	Y_4.png	4	confidence.png	1	guessing.png	2	respond_yes.png	3	respond_no.png	4	Word 8 of 12	1	Image 3 of 3	1	Definitely_NO.png	6	Definitely_YES.png	7	unsure_no.png	8	unsure_yes.png	9	reveal.png	5
1	practiceBlock	practice_trial	19	49	yes_3	Picture2.jpg	N_1.png	1	N_2.png	2	N_3.png	3	N_4.png	4	Y_1.png	1	Y_2.png	2	Y_3.png	3	Y_4.png	4	confidence.png	1	guessing.png	2	respond_yes.png	3	respond_no.png	4	Word 9 of 12	1	Image 3 of 3	1	Definitely_NO.png	6	Definitely_YES.png	7	unsure_no.png	8	unsure_yes.png	9	eyes	3
1	practiceBlock	centre_mouse	20	51	reveal	Picture2.jpg	N_1.png	1	N_2.png	2	N_3.png	3	N_4.png	4	Y_1.png	1	Y_2.png	2	Y_3.png	3	Y_4.png	4	confidence.png	1	guessing.png	2	respond_yes.png	3	respond_no.png	4	Word 9 of 12	1	Image 3 of 3	1	Definitely_NO.png	6	Definitely_YES.png	7	unsure_no.png	8	unsure_yes.png	9	reveal.png	5
1	practiceBlock	practice_absent	21	35	no_2	Picture2.jpg	N_1.png	1	N_2.png	2	N_3.png	3	N_4.png	4	Y_1.png	1	Y_2.png	2	Y_3.png	3	Y_4.png	4	confidence.png	1	guessing.png	2	respond_yes.png	3	respond_no.png	4	Word 10 of 12	1	Image 3 of 3	1	Definitely_NO.png	6	Definitely_YES.png	7	unsure_no.png	8	unsure_yes.png	9	maple	3
1	practiceBlock	centre_mouse	22	50	reveal	Picture2.jpg	N_1.png	1	N_2.png	2	N_3.png	3	N_4.png	4	Y_1.png	1	Y_2.png	2	Y_3.png	3	Y_4.png	4	confidence.png	1	guessing.png	2	respond_yes.png	3	respond_no.png	4	Word 10 of 12	1	Image 3 of 3	1	Definitely_NO.png	6	Definitely_YES.png	7	unsure_no.png	8	unsure_yes.png	9	reveal.png	5
1	practiceBlock	practice_trial	23	21	yes_4	Picture2.jpg	N_1.png	1	N_2.png	2	N_3.png	3	N_4.png	4	Y_1.png	1	Y_2.png	2	Y_3.png	3	Y_4.png	4	confidence.png	1	guessing.png	2	respond_yes.png	3	respond_no.png	4	Word 11 of 12	1	Image 3 of 3	1	Definitely_NO.png	6	Definitely_YES.png	7	unsure_no.png	8	unsure_yes.png	9	emoji	6
1	practiceBlock	centre_mouse	24	41	reveal	Picture2.jpg	N_1.png	1	N_2.png	2	N_3.png	3	N_4.png	4	Y_1.png	1	Y_2.png	2	Y_3.png	3	Y_4.png	4	confidence.png	1	guessing.png	2	respond_yes.png	3	respond_no.png	4	Word 11 of 12	1	Image 3 of 3	1	Definitely_NO.png	6	Definitely_YES.png	7	unsure_no.png	8	unsure_yes.png	9	reveal.png	5
1	practiceBlock	practice_absent	25	38	no_4	Picture2.jpg	N_1.png	1	N_2.png	2	N_3.png	3	N_4.png	4	Y_1.png	1	Y_2.png	2	Y_3.png	3	Y_4.png	4	confidence.png	1	guessing.png	2	respond_yes.png	3	respond_no.png	4	Word 12 of 12	1	Image 3 of 3	1	Definitely_NO.png	6	Definitely_YES.png	7	unsure_no.png	8	unsure_yes.png	9	smoke	5
1	practiceBlock	centre_mouse	26	30	reveal	Picture2.jpg	N_1.png	1	N_2.png	2	N_3.png	3	N_4.png	4	Y_1.png	1	Y_2.png	2	Y_3.png	3	Y_4.png	4	confidence.png	1	guessing.png	2	respond_yes.png	3	respond_no.png	4	Word 12 of 12	1	Image 3 of 3	1	Definitely_NO.png	6	Definitely_YES.png	7	unsure_no.png	8	unsure_yes.png	9	reveal.png	5
1	reset	reset	1	200	0	Picture2.jpg	0	0	0	0	0	0	0	0	0	0	0	0	0	0	0	0	0	0	0	0	0	0	0	0	0	0	0	0	0	0	0	0	0	0	0	0	0	0
1	reminder_start	reminder_start	1	48	reveal	Picture2.jpg	Click the center square to proceed to the REAL trials	1	reveal.png	5	0	0	0	0	0	0	0	0	0	0	0	0	0	0	0	0	0	0	0	0	0	0	0	0	0	0	0	0	0	0	0	0	0	0
1	testBlock	test	1	1	0	im0000041.jpg	+	1	im0000313.jpg	30	mask5.jpg	5	mask1.jpg	1	mask3.jpg	3	mask3.jpg	3	mask5.jpg	5	0	0	0	0	0	0	0	0	0	0	0	0	0	0	0	0	0	0	0	0	0	0	0	0
1	testBlock	centre_mouse	2	51	reveal	im0000041.jpg	N_1.png	1	N_2.png	2	N_3.png	3	N_4.png	4	Y_1.png	1	Y_2.png	2	Y_3.png	3	Y_4.png	4	confidence.png	1	guessing.png	2	respond_yes.png	3	respond_no.png	4	Word 0 of 12	1	Image 1 of 40	1	Definitely_NO.png	6	Definitely_YES.png	7	unsure_no.png	8	unsure_yes.png	9	reveal.png	5
1	testBlock	present_trial	3	30	yes_3	im0000313.jpg	N_1.png	1	N_2.png	2	N_3.png	3	N_4.png	4	Y_1.png	1	Y_2.png	2	Y_3.png	3	Y_4.png	4	confidence.png	1	guessing.png	2	respond_yes.png	3	respond_no.png	4	Word 1 of 12	1	Image 1 of 40	1	Definitely_NO.png	6	Definitely_YES.png	7	unsure_no.png	8	unsure_yes.png	9	girl	2
1	testBlock	centre_mouse	4	64	reveal	im0000313.jpg	N_1.png	1	N_2.png	2	N_3.png	3	N_4.png	4	Y_1.png	1	Y_2.png	2	Y_3.png	3	Y_4.png	4	confidence.png	1	guessing.png	2	respond_yes.png	3	respond_no.png	4	Word 1 of 12	1	Image 1 of 40	1	Definitely_NO.png	6	Definitely_YES.png	7	unsure_no.png	8	unsure_yes.png	9	reveal.png	5
1	testBlock	absent_trial	5	32	no_1	im0000313.jpg	N_1.png	1	N_2.png	2	N_3.png	3	N_4.png	4	Y_1.png	1	Y_2.png	2	Y_3.png	3	Y_4.png	4	confidence.png	1	guessing.png	2	respond_yes.png	3	respond_no.png	4	Word 2 of 12	1	Image 1 of 40	1	Definitely_NO.png	6	Definitely_YES.png	7	unsure_no.png	8	unsure_yes.png	9	fountain	10
1	testBlock	centre_mouse	6	43	reveal	im0000313.jpg	N_1.png	1	N_2.png	2	N_3.png	3	N_4.png	4	Y_1.png	1	Y_2.png	2	Y_3.png	3	Y_4.png	4	confidence.png	1	guessing.png	2	respond_yes.png	3	respond_no.png	4	Word 2 of 12	1	Image 1 of 40	1	Definitely_NO.png	6	Definitely_YES.png	7	unsure_no.png	8	unsure_yes.png	9	reveal.png	5
1	testBlock	present_trial	7	36	no_1	im0000313.jpg	N_1.png	1	N_2.png	2	N_3.png	3	N_4.png	4	Y_1.png	1	Y_2.png	2	Y_3.png	3	Y_4.png	4	confidence.png	1	guessing.png	2	respond_yes.png	3	respond_no.png	4	Word 3 of 12	1	Image 1 of 40	1	Definitely_NO.png	6	Definitely_YES.png	7	unsure_no.png	8	unsure_yes.png	9	dress	5
1	testBlock	centre_mouse	8	49	reveal	im0000313.jpg	N_1.png	1	N_2.png	2	N_3.png	3	N_4.png	4	Y_1.png	1	Y_2.png	2	Y_3.png	3	Y_4.png	4	confidence.png	1	guessing.png	2	respond_yes.png	3	respond_no.png	4	Word 3 of 12	1	Image 1 of 40	1	Definitely_NO.png	6	Definitely_YES.png	7	unsure_no.png	8	unsure_yes.png	9	reveal.png	5
1	testBlock	absent_trial	9	47	no_1	im0000313.jpg	N_1.png	1	N_2.png	2	N_3.png	3	N_4.png	4	Y_1.png	1	Y_2.png	2	Y_3.png	3	Y_4.png	4	confidence.png	1	guessing.png	2	respond_yes.png	3	respond_no.png	4	Word 4 of 12	1	Image 1 of 40	1	Definitely_NO.png	6	Definitely_YES.png	7	unsure_no.png	8	unsure_yes.png	9	interstate	2
1	testBlock	centre_mouse	10	43	reveal	im0000313.jpg	N_1.png	1	N_2.png	2	N_3.png	3	N_4.png	4	Y_1.png	1	Y_2.png	2	Y_3.png	3	Y_4.png	4	confidence.png	1	guessing.png	2	respond_yes.png	3	respond_no.png	4	Word 4 of 12	1	Image 1 of 40	1	Definitely_NO.png	6	Definitely_YES.png	7	unsure_no.png	8	unsure_yes.png	9	reveal.png	5
1	testBlock	present_trial	11	52	yes_1	im0000313.jpg	N_1.png	1	N_2.png	2	N_3.png	3	N_4.png	4	Y_1.png	1	Y_2.png	2	Y_3.png	3	Y_4.png	4	confidence.png	1	guessing.png	2	respond_yes.png	3	respond_no.png	4	Word 5 of 12	1	Image 1 of 40	1	Definitely_NO.png	6	Definitely_YES.png	7	unsure_no.png	8	unsure_yes.png	9	room	3
1	testBlock	centre_mouse	12	50	reveal	im0000313.jpg	N_1.png	1	N_2.png	2	N_3.png	3	N_4.png	4	Y_1.png	1	Y_2.png	2	Y_3.png	3	Y_4.png	4	confidence.png	1	guessing.png	2	respond_yes.png	3	respond_no.png	4	Word 5 of 12	1	Image 1 of 40	1	Definitely_NO.png	6	Definitely_YES.png	7	unsure_no.png	8	unsure_yes.png	9	reveal.png	5
1	testBlock	absent_trial	13	63	yes_1	im0000313.jpg	N_1.png	1	N_2.png	2	N_3.png	3	N_4.png	4	Y_1.png	1	Y_2.png	2	Y_3.png	3	Y_4.png	4	confidence.png	1	guessing.png	2	respond_yes.png	3	respond_no.png	4	Word 6 of 12	1	Image 1 of 40	1	Definitely_NO.png	6	Definitely_YES.png	7	unsure_no.png	8	unsure_yes.png	9	touch	4
1	testBlock	centre_mouse	14	44	reveal	im0000313.jpg	N_1.png	1	N_2.png	2	N_3.png	3	N_4.png	4	Y_1.png	1	Y_2.png	2	Y_3.png	3	Y_4.png	4	confidence.png	1	guessing.png	2	respond_yes.png	3	respond_no.png	4	Word 6 of 12	1	Image 1 of 40	1	Definitely_NO.png	6	Definitely_YES.png	7	unsure_no.png	8	unsure_yes.png	9	reveal.png	5
1	testBlock	present_trial	15	29	yes_3	im0000313.jpg	N_1.png	1	N_2.png	2	N_3.png	3	N_4.png	4	Y_1.png	1	Y_2.png	2	Y_3.png	3	Y_4.png	4	confidence.png	1	guessing.png	2	respond_yes.png	3	respond_no.png	4	Word 7 of 12	1	Image 1 of 40	1	Definitely_NO.png	6	Definitely_YES.png	7	unsure_no.png	8	unsure_yes.png	9	woman	4
1	testBlock	centre_mouse	16	62	reveal	im0000313.jpg	N_1.png	1	N_2.png	2	N_3.png	3	N_4.png	4	Y_1.png	1	Y_2.png	2	Y_3.png	3	Y_4.png	4	confidence.png	1	guessing.png	2	respond_yes.png	3	respond_no.png	4	Word 7 of 12	1	Image 1 of 40	1	Definitely_NO.png	6	Definitely_YES.png	7	unsure_no.png	8	unsure_yes.png	9	reveal.png	5
1	testBlock	absent_trial	17	27	no_1	im0000313.jpg	N_1.png	1	N_2.png	2	N_3.png	3	N_4.png	4	Y_1.png	1	Y_2.png	2	Y_3.png	3	Y_4.png	4	confidence.png	1	guessing.png	2	respond_yes.png	3	respond_no.png	4	Word 8 of 12	1	Image 1 of 40	1	Definitely_NO.png	6	Definitely_YES.png	7	unsure_no.png	8	unsure_yes.png	9	paintbrush	1
1	testBlock	centre_mouse	18	33	reveal	im0000313.jpg	N_1.png	1	N_2.png	2	N_3.png	3	N_4.png	4	Y_1.png	1	Y_2.png	2	Y_3.png	3	Y_4.png	4	confidence.png	1	guessing.png	2	respond_yes.png	3	respond_no.png	4	Word 8 of 12	1	Image 1 of 40	1	Definitely_NO.png	6	Definitely_YES.png	7	unsure_no.png	8	unsure_yes.png	9	reveal.png	5
1	testBlock	absent_trial	19	41	yes_1	im0000313.jpg	N_1.png	1	N_2.png	2	N_3.png	3	N_4.png	4	Y_1.png	1	Y_2.png	2	Y_3.png	3	Y_4.png	4	confidence.png	1	guessing.png	2	respond_yes.png	3	respond_no.png	4	Word 9 of 12	1	Image 1 of 40	1	Definitely_NO.png	6	Definitely_YES.png	7	unsure_no.png	8	unsure_yes.png	9	church	8
1	testBlock	centre_mouse	20	61	reveal	im0000313.jpg	N_1.png	1	N_2.png	2	N_3.png	3	N_4.png	4	Y_1.png	1	Y_2.png	2	Y_3.png	3	Y_4.png	4	confidence.png	1	guessing.png	2	respond_yes.png	3	respond_no.png	4	Word 9 of 12	1	Image 1 of 40	1	Definitely_NO.png	6	Definitely_YES.png	7	unsure_no.png	8	unsure_yes.png	9	reveal.png	5
1	testBlock	present_trial	21	40	no_2	im0000313.jpg	N_1.png	1	N_2.png	2	N_3.png	3	N_4.png	4	Y_1.png	1	Y_2.png	2	Y_3.png	3	Y_4.png	4	confidence.png	1	guessing.png	2	respond_yes.png	3	respond_no.png	4	Word 10 of 12	1	Image 1 of 40	1	Definitely_NO.png	6	Definitely_YES.png	7	unsure_no.png	8	unsure_yes.png	9	sport	1
1	testBlock	centre_mouse	22	50	reveal	im0000313.jpg	N_1.png	1	N_2.png	2	N_3.png	3	N_4.png	4	Y_1.png	1	Y_2.png	2	Y_3.png	3	Y_4.png	4	confidence.png	1	guessing.png	2	respond_yes.png	3	respond_no.png	4	Word 10 of 12	1	Image 1 of 40	1	Definitely_NO.png	6	Definitely_YES.png	7	unsure_no.png	8	unsure_yes.png	9	reveal.png	5
1	testBlock	present_trial	23	41	no_3	im0000313.jpg	N_1.png	1	N_2.png	2	N_3.png	3	N_4.png	4	Y_1.png	1	Y_2.png	2	Y_3.png	3	Y_4.png	4	confidence.png	1	guessing.png	2	respond_yes.png	3	respond_no.png	4	Word 11 of 12	1	Image 1 of 40	1	Definitely_NO.png	6	Definitely_YES.png	7	unsure_no.png	8	unsure_yes.png	9	stand	6
1	testBlock	centre_mouse	24	63	reveal	im0000313.jpg	N_1.png	1	N_2.png	2	N_3.png	3	N_4.png	4	Y_1.png	1	Y_2.png	2	Y_3.png	3	Y_4.png	4	confidence.png	1	guessing.png	2	respond_yes.png	3	respond_no.png	4	Word 11 of 12	1	Image 1 of 40	1	Definitely_NO.png	6	Definitely_YES.png	7	unsure_no.png	8	unsure_yes.png	9	reveal.png	5
1	testBlock	absent_trial	25	35	no_3	im0000313.jpg	N_1.png	1	N_2.png	2	N_3.png	3	N_4.png	4	Y_1.png	1	Y_2.png	2	Y_3.png	3	Y_4.png	4	confidence.png	1	guessing.png	2	respond_yes.png	3	respond_no.png	4	Word 12 of 12	1	Image 1 of 40	1	Definitely_NO.png	6	Definitely_YES.png	7	unsure_no.png	8	unsure_yes.png	9	counter	3
1	testBlock	centre_mouse	26	53	reveal	im0000313.jpg	N_1.png	1	N_2.png	2	N_3.png	3	N_4.png	4	Y_1.png	1	Y_2.png	2	Y_3.png	3	Y_4.png	4	confidence.png	1	guessing.png	2	respond_yes.png	3	respond_no.png	4	Word 12 of 12	1	Image 1 of 40	1	Definitely_NO.png	6	Definitely_YES.png	7	unsure_no.png	8	unsure_yes.png	9	reveal.png	5
1	testBlock	test	1	1	0	im0000313.jpg	+	1	im0000084.jpg	6	mask2.jpg	2	mask3.jpg	3	mask2.jpg	2	mask5.jpg	5	mask3.jpg	3	0	0	0	0	0	0	0	0	0	0	0	0	0	0	0	0	0	0	0	0	0	0	0	0
1	testBlock	centre_mouse	2	43	reveal	im0000313.jpg	N_1.png	1	N_2.png	2	N_3.png	3	N_4.png	4	Y_1.png	1	Y_2.png	2	Y_3.png	3	Y_4.png	4	confidence.png	1	guessing.png	2	respond_yes.png	3	respond_no.png	4	Word 0 of 12	1	Image 2 of 40	1	Definitely_NO.png	6	Definitely_YES.png	7	unsure_no.png	8	unsure_yes.png	9	reveal.png	5
1	testBlock	present_trial	3	43	yes_2	im0000084.jpg	N_1.png	1	N_2.png	2	N_3.png	3	N_4.png	4	Y_1.png	1	Y_2.png	2	Y_3.png	3	Y_4.png	4	confidence.png	1	guessing.png	2	respond_yes.png	3	respond_no.png	4	Word 1 of 12	1	Image 2 of 40	1	Definitely_NO.png	6	Definitely_YES.png	7	unsure_no.png	8	unsure_yes.png	9	blue	4
1	testBlock	centre_mouse	4	61	reveal	im0000084.jpg	N_1.png	1	N_2.png	2	N_3.png	3	N_4.png	4	Y_1.png	1	Y_2.png	2	Y_3.png	3	Y_4.png	4	confidence.png	1	guessing.png	2	respond_yes.png	3	respond_no.png	4	Word 1 of 12	1	Image 2 of 40	1	Definitely_NO.png	6	Definitely_YES.png	7	unsure_no.png	8	unsure_yes.png	9	reveal.png	5
1	testBlock	absent_trial	5	56	no_3	im0000084.jpg	N_1.png	1	N_2.png	2	N_3.png	3	N_4.png	4	Y_1.png	1	Y_2.png	2	Y_3.png	3	Y_4.png	4	confidence.png	1	guessing.png	2	respond_yes.png	3	respond_no.png	4	Word 2 of 12	1	Image 2 of 40	1	Definitely_NO.png	6	Definitely_YES.png	7	unsure_no.png	8	unsure_yes.png	9	parent	10
1	testBlock	centre_mouse	6	47	reveal	im0000084.jpg	N_1.png	1	N_2.png	2	N_3.png	3	N_4.png	4	Y_1.png	1	Y_2.png	2	Y_3.png	3	Y_4.png	4	confidence.png	1	guessing.png	2	respond_yes.png	3	respond_no.png	4	Word 2 of 12	1	Image 2 of 40	1	Definitely_NO.png	6	Definitely_YES.png	7	unsure_no.png	8	unsure_yes.png	9	reveal.png	5
1	testBlock	present_trial	7	45	no_2	im0000084.jpg	N_1.png	1	N_2.png	2	N_3.png	3	N_4.png	4	Y_1.png	1	Y_2.png	2	Y_3.png	3	Y_4.png	4	confidence.png	1	guessing.png	2	respond_yes.png	3	respond_no.png	4	Word 3 of 12	1	Image 2 of 40	1	Definitely_NO.png	6	Definitely_YES.png	7	unsure_no.png	8	unsure_yes.png	9	water	1
1	testBlock	centre_mouse	8	51	reveal	im0000084.jpg	N_1.png	1	N_2.png	2	N_3.png	3	N_4.png	4	Y_1.png	1	Y_2.png	2	Y_3.png	3	Y_4.png	4	confidence.png	1	guessing.png	2	respond_yes.png	3	respond_no.png	4	Word 3 of 12	1	Image 2 of 40	1	Definitely_NO.png	6	Definitely_YES.png	7	unsure_no.png	8	unsure_yes.png	9	reveal.png	5
1	testBlock	present_trial	9	33	no_2	im0000084.jpg	N_1.png	1	N_2.png	2	N_3.png	3	N_4.png	4	Y_1.png	1	Y_2.png	2	Y_3.png	3	Y_4.png	4	confidence.png	1	guessing.png	2	respond_yes.png	3	respond_no.png	4	Word 4 of 12	1	Image 2 of 40	1	Definitely_NO.png	6	Definitely_YES.png	7	unsure_no.png	8	unsure_yes.png	9	calm	3
1	testBlock	centre_mouse	10	41	reveal	im0000084.jpg	N_1.png	1	N_2.png	2	N_3.png	3	N_4.png	4	Y_1.png	1	Y_2.png	2	Y_3.png	3	Y_4.png	4	confidence.png	1	guessing.png	2	respond_yes.png	3	respond_no.png	4	Word 4 of 12	1	Image 2 of 40	1	Definitely_NO.png	6	Definitely_YES.png	7	unsure_no.png	8	unsure_yes.png	9	reveal.png	5
1	testBlock	absent_trial	11	47	yes_2	im0000084.jpg	N_1.png	1	N_2.png	2	N_3.png	3	N_4.png	4	Y_1.png	1	Y_2.png	2	Y_3.png	3	Y_4.png	4	confidence.png	1	guessing.png	2	respond_yes.png	3	respond_no.png	4	Word 5 of 12	1	Image 2 of 40	1	Definitely_NO.png	6	Definitely_YES.png	7	unsure_no.png	8	unsure_yes.png	9	hilly	3
1	testBlock	centre_mouse	12	38	reveal	im0000084.jpg	N_1.png	1	N_2.png	2	N_3.png	3	N_4.png	4	Y_1.png	1	Y_2.png	2	Y_3.png	3	Y_4.png	4	confidence.png	1	guessing.png	2	respond_yes.png	3	respond_no.png	4	Word 5 of 12	1	Image 2 of 40	1	Definitely_NO.png	6	Definitely_YES.png	7	unsure_no.png	8	unsure_yes.png	9	reveal.png	5
1	testBlock	absent_trial	13	50	yes_4	im0000084.jpg	N_1.png	1	N_2.png	2	N_3.png	3	N_4.png	4	Y_1.png	1	Y_2.png	2	Y_3.png	3	Y_4.png	4	confidence.png	1	guessing.png	2	respond_yes.png	3	respond_no.png	4	Word 6 of 12	1	Image 2 of 40	1	Definitely_NO.png	6	Definitely_YES.png	7	unsure_no.png	8	unsure_yes.png	9	think	7
1	testBlock	centre_mouse	14	61	reveal	im0000084.jpg	N_1.png	1	N_2.png	2	N_3.png	3	N_4.png	4	Y_1.png	1	Y_2.png	2	Y_3.png	3	Y_4.png	4	confidence.png	1	guessing.png	2	respond_yes.png	3	respond_no.png	4	Word 6 of 12	1	Image 2 of 40	1	Definitely_NO.png	6	Definitely_YES.png	7	unsure_no.png	8	unsure_yes.png	9	reveal.png	5
1	testBlock	absent_trial	15	48	yes_3	im0000084.jpg	N_1.png	1	N_2.png	2	N_3.png	3	N_4.png	4	Y_1.png	1	Y_2.png	2	Y_3.png	3	Y_4.png	4	confidence.png	1	guessing.png	2	respond_yes.png	3	respond_no.png	4	Word 7 of 12	1	Image 2 of 40	1	Definitely_NO.png	6	Definitely_YES.png	7	unsure_no.png	8	unsure_yes.png	9	bottle	2
1	testBlock	centre_mouse	16	41	reveal	im0000084.jpg	N_1.png	1	N_2.png	2	N_3.png	3	N_4.png	4	Y_1.png	1	Y_2.png	2	Y_3.png	3	Y_4.png	4	confidence.png	1	guessing.png	2	respond_yes.png	3	respond_no.png	4	Word 7 of 12	1	Image 2 of 40	1	Definitely_NO.png	6	Definitely_YES.png	7	unsure_no.png	8	unsure_yes.png	9	reveal.png	5
1	testBlock	present_trial	17	38	no_2	im0000084.jpg	N_1.png	1	N_2.png	2	N_3.png	3	N_4.png	4	Y_1.png	1	Y_2.png	2	Y_3.png	3	Y_4.png	4	confidence.png	1	guessing.png	2	respond_yes.png	3	respond_no.png	4	Word 8 of 12	1	Image 2 of 40	1	Definitely_NO.png	6	Definitely_YES.png	7	unsure_no.png	8	unsure_yes.png	9	beach	5
1	testBlock	centre_mouse	18	56	reveal	im0000084.jpg	N_1.png	1	N_2.png	2	N_3.png	3	N_4.png	4	Y_1.png	1	Y_2.png	2	Y_3.png	3	Y_4.png	4	confidence.png	1	guessing.png	2	respond_yes.png	3	respond_no.png	4	Word 8 of 12	1	Image 2 of 40	1	Definitely_NO.png	6	Definitely_YES.png	7	unsure_no.png	8	unsure_yes.png	9	reveal.png	5
1	testBlock	absent_trial	19	38	no_4	im0000084.jpg	N_1.png	1	N_2.png	2	N_3.png	3	N_4.png	4	Y_1.png	1	Y_2.png	2	Y_3.png	3	Y_4.png	4	confidence.png	1	guessing.png	2	respond_yes.png	3	respond_no.png	4	Word 9 of 12	1	Image 2 of 40	1	Definitely_NO.png	6	Definitely_YES.png	7	unsure_no.png	8	unsure_yes.png	9	big	9
1	testBlock	centre_mouse	20	37	reveal	im0000084.jpg	N_1.png	1	N_2.png	2	N_3.png	3	N_4.png	4	Y_1.png	1	Y_2.png	2	Y_3.png	3	Y_4.png	4	confidence.png	1	guessing.png	2	respond_yes.png	3	respond_no.png	4	Word 9 of 12	1	Image 2 of 40	1	Definitely_NO.png	6	Definitely_YES.png	7	unsure_no.png	8	unsure_yes.png	9	reveal.png	5
1	testBlock	absent_trial	21	49	no_2	im0000084.jpg	N_1.png	1	N_2.png	2	N_3.png	3	N_4.png	4	Y_1.png	1	Y_2.png	2	Y_3.png	3	Y_4.png	4	confidence.png	1	guessing.png	2	respond_yes.png	3	respond_no.png	4	Word 10 of 12	1	Image 2 of 40	1	Definitely_NO.png	6	Definitely_YES.png	7	unsure_no.png	8	unsure_yes.png	9	tattoo	1
1	testBlock	centre_mouse	22	52	reveal	im0000084.jpg	N_1.png	1	N_2.png	2	N_3.png	3	N_4.png	4	Y_1.png	1	Y_2.png	2	Y_3.png	3	Y_4.png	4	confidence.png	1	guessing.png	2	respond_yes.png	3	respond_no.png	4	Word 10 of 12	1	Image 2 of 40	1	Definitely_NO.png	6	Definitely_YES.png	7	unsure_no.png	8	unsure_yes.png	9	reveal.png	5
1	testBlock	present_trial	23	35	yes_1	im0000084.jpg	N_1.png	1	N_2.png	2	N_3.png	3	N_4.png	4	Y_1.png	1	Y_2.png	2	Y_3.png	3	Y_4.png	4	confidence.png	1	guessing.png	2	respond_yes.png	3	respond_no.png	4	Word 11 of 12	1	Image 2 of 40	1	Definitely_NO.png	6	Definitely_YES.png	7	unsure_no.png	8	unsure_yes.png	9	light	2
1	testBlock	centre_mouse	24	52	reveal	im0000084.jpg	N_1.png	1	N_2.png	2	N_3.png	3	N_4.png	4	Y_1.png	1	Y_2.png	2	Y_3.png	3	Y_4.png	4	confidence.png	1	guessing.png	2	respond_yes.png	3	respond_no.png	4	Word 11 of 12	1	Image 2 of 40	1	Definitely_NO.png	6	Definitely_YES.png	7	unsure_no.png	8	unsure_yes.png	9	reveal.png	5
1	testBlock	present_trial	25	29	no_3	im0000084.jpg	N_1.png	1	N_2.png	2	N_3.png	3	N_4.png	4	Y_1.png	1	Y_2.png	2	Y_3.png	3	Y_4.png	4	confidence.png	1	guessing.png	2	respond_yes.png	3	respond_no.png	4	Word 12 of 12	1	Image 2 of 40	1	Definitely_NO.png	6	Definitely_YES.png	7	unsure_no.png	8	unsure_yes.png	9	ocean	6
1	testBlock	centre_mouse	26	51	reveal	im0000084.jpg	N_1.png	1	N_2.png	2	N_3.png	3	N_4.png	4	Y_1.png	1	Y_2.png	2	Y_3.png	3	Y_4.png	4	confidence.png	1	guessing.png	2	respond_yes.png	3	respond_no.png	4	Word 12 of 12	1	Image 2 of 40	1	Definitely_NO.png	6	Definitely_YES.png	7	unsure_no.png	8	unsure_yes.png	9	reveal.png	5
1	testBlock	test	1	1	0	im0000084.jpg	+	1	im0000402.jpg	40	mask4.jpg	4	mask1.jpg	1	mask5.jpg	5	mask1.jpg	1	mask1.jpg	1	0	0	0	0	0	0	0	0	0	0	0	0	0	0	0	0	0	0	0	0	0	0	0	0
1	testBlock	centre_mouse	2	31	reveal	im0000084.jpg	N_1.png	1	N_2.png	2	N_3.png	3	N_4.png	4	Y_1.png	1	Y_2.png	2	Y_3.png	3	Y_4.png	4	confidence.png	1	guessing.png	2	respond_yes.png	3	respond_no.png	4	Word 0 of 12	1	Image 3 of 40	1	Definitely_NO.png	6	Definitely_YES.png	7	unsure_no.png	8	unsure_yes.png	9	reveal.png	5
1	testBlock	present_trial	3	46	no_1	im0000402.jpg	N_1.png	1	N_2.png	2	N_3.png	3	N_4.png	4	Y_1.png	1	Y_2.png	2	Y_3.png	3	Y_4.png	4	confidence.png	1	guessing.png	2	respond_yes.png	3	respond_no.png	4	Word 1 of 12	1	Image 3 of 40	1	Definitely_NO.png	6	Definitely_YES.png	7	unsure_no.png	8	unsure_yes.png	9	people	6
1	testBlock	centre_mouse	4	57	reveal	im0000402.jpg	N_1.png	1	N_2.png	2	N_3.png	3	N_4.png	4	Y_1.png	1	Y_2.png	2	Y_3.png	3	Y_4.png	4	confidence.png	1	guessing.png	2	respond_yes.png	3	respond_no.png	4	Word 1 of 12	1	Image 3 of 40	1	Definitely_NO.png	6	Definitely_YES.png	7	unsure_no.png	8	unsure_yes.png	9	reveal.png	5
1	testBlock	absent_trial	5	56	no_4	im0000402.jpg	N_1.png	1	N_2.png	2	N_3.png	3	N_4.png	4	Y_1.png	1	Y_2.png	2	Y_3.png	3	Y_4.png	4	confidence.png	1	guessing.png	2	respond_yes.png	3	respond_no.png	4	Word 2 of 12	1	Image 3 of 40	1	Definitely_NO.png	6	Definitely_YES.png	7	unsure_no.png	8	unsure_yes.png	9	vinyl	8
1	testBlock	centre_mouse	6	49	reveal	im0000402.jpg	N_1.png	1	N_2.png	2	N_3.png	3	N_4.png	4	Y_1.png	1	Y_2.png	2	Y_3.png	3	Y_4.png	4	confidence.png	1	guessing.png	2	respond_yes.png	3	respond_no.png	4	Word 2 of 12	1	Image 3 of 40	1	Definitely_NO.png	6	Definitely_YES.png	7	unsure_no.png	8	unsure_yes.png	9	reveal.png	5
1	testBlock	present_trial	7	49	yes_4	im0000402.jpg	N_1.png	1	N_2.png	2	N_3.png	3	N_4.png	4	Y_1.png	1	Y_2.png	2	Y_3.png	3	Y_4.png	4	confidence.png	1	guessing.png	2	respond_yes.png	3	respond_no.png	4	Word 3 of 12	1	Image 3 of 40	1	Definitely_NO.png	6	Definitely_YES.png	7	unsure_no.png	8	unsure_yes.png	9	building	3
1	testBlock	centre_mouse	8	29	reveal	im0000402.jpg	N_1.png	1	N_2.png	2	N_3.png	3	N_4.png	4	Y_1.png	1	Y_2.png	2	Y_3.png	3	Y_4.png	4	confidence.png	1	guessing.png	2	respond_yes.png	3	respond_no.png	4	Word 3 of 12	1	Image 3 of 40	1	Definitely_NO.png	6	Definitely_YES.png	7	unsure_no.png	8	unsure_yes.png	9	reveal.png	5
1	testBlock	present_trial	9	61	no_2	im0000402.jpg	N_1.png	1	N_2.png	2	N_3.png	3	N_4.png	4	Y_1.png	1	Y_2.png	2	Y_3.png	3	Y_4.png	4	confidence.png	1	guessing.png	2	respond_yes.png	3	respond_no.png	4	Word 4 of 12	1	Image 3 of 40	1	Definitely_NO.png	6	Definitely_YES.png	7	unsure_no.png	8	unsure_yes.png	9	busy	2
1	testBlock	centre_mouse	10	34	reveal	im0000402.jpg	N_1.png	1	N_2.png	2	N_3.png	3	N_4.png	4	Y_1.png	1	Y_2.png	2	Y_3.png	3	Y_4.png	4	confidence.png	1	guessing.png	2	respond_yes.png	3	respond_no.png	4	Word 4 of 12	1	Image 3 of 40	1	Definitely_NO.png	6	Definitely_YES.png	7	unsure_no.png	8	unsure_yes.png	9	reveal.png	5
1	testBlock	present_trial	11	58	no_3	im0000402.jpg	N_1.png	1	N_2.png	2	N_3.png	3	N_4.png	4	Y_1.png	1	Y_2.png	2	Y_3.png	3	Y_4.png	4	confidence.png	1	guessing.png	2	respond_yes.png	3	respond_no.png	4	Word 5 of 12	1	Image 3 of 40	1	Definitely_NO.png	6	Definitely_YES.png	7	unsure_no.png	8	unsure_yes.png	9	car	1
1	testBlock	centre_mouse	12	52	reveal	im0000402.jpg	N_1.png	1	N_2.png	2	N_3.png	3	N_4.png	4	Y_1.png	1	Y_2.png	2	Y_3.png	3	Y_4.png	4	confidence.png	1	guessing.png	2	respond_yes.png	3	respond_no.png	4	Word 5 of 12	1	Image 3 of 40	1	Definitely_NO.png	6	Definitely_YES.png	7	unsure_no.png	8	unsure_yes.png	9	reveal.png	5
1	testBlock	present_trial	13	36	no_3	im0000402.jpg	N_1.png	1	N_2.png	2	N_3.png	3	N_4.png	4	Y_1.png	1	Y_2.png	2	Y_3.png	3	Y_4.png	4	confidence.png	1	guessing.png	2	respond_yes.png	3	respond_no.png	4	Word 6 of 12	1	Image 3 of 40	1	Definitely_NO.png	6	Definitely_YES.png	7	unsure_no.png	8	unsure_yes.png	9	daytime	5
1	testBlock	centre_mouse	14	50	reveal	im0000402.jpg	N_1.png	1	N_2.png	2	N_3.png	3	N_4.png	4	Y_1.png	1	Y_2.png	2	Y_3.png	3	Y_4.png	4	confidence.png	1	guessing.png	2	respond_yes.png	3	respond_no.png	4	Word 6 of 12	1	Image 3 of 40	1	Definitely_NO.png	6	Definitely_YES.png	7	unsure_no.png	8	unsure_yes.png	9	reveal.png	5
1	testBlock	absent_trial	15	58	no_2	im0000402.jpg	N_1.png	1	N_2.png	2	N_3.png	3	N_4.png	4	Y_1.png	1	Y_2.png	2	Y_3.png	3	Y_4.png	4	confidence.png	1	guessing.png	2	respond_yes.png	3	respond_no.png	4	Word 7 of 12	1	Image 3 of 40	1	Definitely_NO.png	6	Definitely_YES.png	7	unsure_no.png	8	unsure_yes.png	9	star	2
1	testBlock	centre_mouse	16	63	reveal	im0000402.jpg	N_1.png	1	N_2.png	2	N_3.png	3	N_4.png	4	Y_1.png	1	Y_2.png	2	Y_3.png	3	Y_4.png	4	confidence.png	1	guessing.png	2	respond_yes.png	3	respond_no.png	4	Word 7 of 12	1	Image 3 of 40	1	Definitely_NO.png	6	Definitely_YES.png	7	unsure_no.png	8	unsure_yes.png	9	reveal.png	5
1	testBlock	absent_trial	17	53	yes_1	im0000402.jpg	N_1.png	1	N_2.png	2	N_3.png	3	N_4.png	4	Y_1.png	1	Y_2.png	2	Y_3.png	3	Y_4.png	4	confidence.png	1	guessing.png	2	respond_yes.png	3	respond_no.png	4	Word 8 of 12	1	Image 3 of 40	1	Definitely_NO.png	6	Definitely_YES.png	7	unsure_no.png	8	unsure_yes.png	9	shave	3
1	testBlock	centre_mouse	18	61	reveal	im0000402.jpg	N_1.png	1	N_2.png	2	N_3.png	3	N_4.png	4	Y_1.png	1	Y_2.png	2	Y_3.png	3	Y_4.png	4	confidence.png	1	guessing.png	2	respond_yes.png	3	respond_no.png	4	Word 8 of 12	1	Image 3 of 40	1	Definitely_NO.png	6	Definitely_YES.png	7	unsure_no.png	8	unsure_yes.png	9	reveal.png	5
1	testBlock	absent_trial	19	22	no_1	im0000402.jpg	N_1.png	1	N_2.png	2	N_3.png	3	N_4.png	4	Y_1.png	1	Y_2.png	2	Y_3.png	3	Y_4.png	4	confidence.png	1	guessing.png	2	respond_yes.png	3	respond_no.png	4	Word 9 of 12	1	Image 3 of 40	1	Definitely_NO.png	6	Definitely_YES.png	7	unsure_no.png	8	unsure_yes.png	9	crash	7
1	testBlock	centre_mouse	20	57	reveal	im0000402.jpg	N_1.png	1	N_2.png	2	N_3.png	3	N_4.png	4	Y_1.png	1	Y_2.png	2	Y_3.png	3	Y_4.png	4	confidence.png	1	guessing.png	2	respond_yes.png	3	respond_no.png	4	Word 9 of 12	1	Image 3 of 40	1	Definitely_NO.png	6	Definitely_YES.png	7	unsure_no.png	8	unsure_yes.png	9	reveal.png	5
1	testBlock	absent_trial	21	30	yes_4	im0000402.jpg	N_1.png	1	N_2.png	2	N_3.png	3	N_4.png	4	Y_1.png	1	Y_2.png	2	Y_3.png	3	Y_4.png	4	confidence.png	1	guessing.png	2	respond_yes.png	3	respond_no.png	4	Word 10 of 12	1	Image 3 of 40	1	Definitely_NO.png	6	Definitely_YES.png	7	unsure_no.png	8	unsure_yes.png	9	hilly	6
1	testBlock	centre_mouse	22	49	reveal	im0000402.jpg	N_1.png	1	N_2.png	2	N_3.png	3	N_4.png	4	Y_1.png	1	Y_2.png	2	Y_3.png	3	Y_4.png	4	confidence.png	1	guessing.png	2	respond_yes.png	3	respond_no.png	4	Word 10 of 12	1	Image 3 of 40	1	Definitely_NO.png	6	Definitely_YES.png	7	unsure_no.png	8	unsure_yes.png	9	reveal.png	5
1	testBlock	present_trial	23	70	no_4	im0000402.jpg	N_1.png	1	N_2.png	2	N_3.png	3	N_4.png	4	Y_1.png	1	Y_2.png	2	Y_3.png	3	Y_4.png	4	confidence.png	1	guessing.png	2	respond_yes.png	3	respond_no.png	4	Word 11 of 12	1	Image 3 of 40	1	Definitely_NO.png	6	Definitely_YES.png	7	unsure_no.png	8	unsure_yes.png	9	sunny	4
1	testBlock	centre_mouse	24	50	reveal	im0000402.jpg	N_1.png	1	N_2.png	2	N_3.png	3	N_4.png	4	Y_1.png	1	Y_2.png	2	Y_3.png	3	Y_4.png	4	confidence.png	1	guessing.png	2	respond_yes.png	3	respond_no.png	4	Word 11 of 12	1	Image 3 of 40	1	Definitely_NO.png	6	Definitely_YES.png	7	unsure_no.png	8	unsure_yes.png	9	reveal.png	5
1	testBlock	absent_trial	25	40	no_2	im0000402.jpg	N_1.png	1	N_2.png	2	N_3.png	3	N_4.png	4	Y_1.png	1	Y_2.png	2	Y_3.png	3	Y_4.png	4	confidence.png	1	guessing.png	2	respond_yes.png	3	respond_no.png	4	Word 12 of 12	1	Image 3 of 40	1	Definitely_NO.png	6	Definitely_YES.png	7	unsure_no.png	8	unsure_yes.png	9	peaceful	1
1	testBlock	centre_mouse	26	47	reveal	im0000402.jpg	N_1.png	1	N_2.png	2	N_3.png	3	N_4.png	4	Y_1.png	1	Y_2.png	2	Y_3.png	3	Y_4.png	4	confidence.png	1	guessing.png	2	respond_yes.png	3	respond_no.png	4	Word 12 of 12	1	Image 3 of 40	1	Definitely_NO.png	6	Definitely_YES.png	7	unsure_no.png	8	unsure_yes.png	9	reveal.png	5
1	testBlock	test	1	1	0	im0000402.jpg	+	1	im0000126.jpg	12	mask5.jpg	5	mask4.jpg	4	mask1.jpg	1	mask4.jpg	4	mask2.jpg	2	0	0	0	0	0	0	0	0	0	0	0	0	0	0	0	0	0	0	0	0	0	0	0	0
1	testBlock	centre_mouse	2	48	reveal	im0000402.jpg	N_1.png	1	N_2.png	2	N_3.png	3	N_4.png	4	Y_1.png	1	Y_2.png	2	Y_3.png	3	Y_4.png	4	confidence.png	1	guessing.png	2	respond_yes.png	3	respond_no.png	4	Word 0 of 12	1	Image 4 of 40	1	Definitely_NO.png	6	Definitely_YES.png	7	unsure_no.png	8	unsure_yes.png	9	reveal.png	5
1	testBlock	present_trial	3	15	yes_1	im0000126.jpg	N_1.png	1	N_2.png	2	N_3.png	3	N_4.png	4	Y_1.png	1	Y_2.png	2	Y_3.png	3	Y_4.png	4	confidence.png	1	guessing.png	2	respond_yes.png	3	respond_no.png	4	Word 1 of 12	1	Image 4 of 40	1	Definitely_NO.png	6	Definitely_YES.png	7	unsure_no.png	8	unsure_yes.png	9	pen	2
1	testBlock	centre_mouse	4	49	reveal	im0000126.jpg	N_1.png	1	N_2.png	2	N_3.png	3	N_4.png	4	Y_1.png	1	Y_2.png	2	Y_3.png	3	Y_4.png	4	confidence.png	1	guessing.png	2	respond_yes.png	3	respond_no.png	4	Word 1 of 12	1	Image 4 of 40	1	Definitely_NO.png	6	Definitely_YES.png	7	unsure_no.png	8	unsure_yes.png	9	reveal.png	5
1	testBlock	present_trial	5	30	yes_1	im0000126.jpg	N_1.png	1	N_2.png	2	N_3.png	3	N_4.png	4	Y_1.png	1	Y_2.png	2	Y_3.png	3	Y_4.png	4	confidence.png	1	guessing.png	2	respond_yes.png	3	respond_no.png	4	Word 2 of 12	1	Image 4 of 40	1	Definitely_NO.png	6	Definitely_YES.png	7	unsure_no.png	8	unsure_yes.png	9	study	1
1	testBlock	centre_mouse	6	40	reveal	im0000126.jpg	N_1.png	1	N_2.png	2	N_3.png	3	N_4.png	4	Y_1.png	1	Y_2.png	2	Y_3.png	3	Y_4.png	4	confidence.png	1	guessing.png	2	respond_yes.png	3	respond_no.png	4	Word 2 of 12	1	Image 4 of 40	1	Definitely_NO.png	6	Definitely_YES.png	7	unsure_no.png	8	unsure_yes.png	9	reveal.png	5
1	testBlock	absent_trial	7	48	yes_4	im0000126.jpg	N_1.png	1	N_2.png	2	N_3.png	3	N_4.png	4	Y_1.png	1	Y_2.png	2	Y_3.png	3	Y_4.png	4	confidence.png	1	guessing.png	2	respond_yes.png	3	respond_no.png	4	Word 3 of 12	1	Image 4 of 40	1	Definitely_NO.png	6	Definitely_YES.png	7	unsure_no.png	8	unsure_yes.png	9	dancer	1
1	testBlock	centre_mouse	8	59	reveal	im0000126.jpg	N_1.png	1	N_2.png	2	N_3.png	3	N_4.png	4	Y_1.png	1	Y_2.png	2	Y_3.png	3	Y_4.png	4	confidence.png	1	guessing.png	2	respond_yes.png	3	respond_no.png	4	Word 3 of 12	1	Image 4 of 40	1	Definitely_NO.png	6	Definitely_YES.png	7	unsure_no.png	8	unsure_yes.png	9	reveal.png	5
1	testBlock	absent_trial	9	41	no_3	im0000126.jpg	N_1.png	1	N_2.png	2	N_3.png	3	N_4.png	4	Y_1.png	1	Y_2.png	2	Y_3.png	3	Y_4.png	4	confidence.png	1	guessing.png	2	respond_yes.png	3	respond_no.png	4	Word 4 of 12	1	Image 4 of 40	1	Definitely_NO.png	6	Definitely_YES.png	7	unsure_no.png	8	unsure_yes.png	9	noise	10
1	testBlock	centre_mouse	10	57	reveal	im0000126.jpg	N_1.png	1	N_2.png	2	N_3.png	3	N_4.png	4	Y_1.png	1	Y_2.png	2	Y_3.png	3	Y_4.png	4	confidence.png	1	guessing.png	2	respond_yes.png	3	respond_no.png	4	Word 4 of 12	1	Image 4 of 40	1	Definitely_NO.png	6	Definitely_YES.png	7	unsure_no.png	8	unsure_yes.png	9	reveal.png	5
1	testBlock	absent_trial	11	41	yes_3	im0000126.jpg	N_1.png	1	N_2.png	2	N_3.png	3	N_4.png	4	Y_1.png	1	Y_2.png	2	Y_3.png	3	Y_4.png	4	confidence.png	1	guessing.png	2	respond_yes.png	3	respond_no.png	4	Word 5 of 12	1	Image 4 of 40	1	Definitely_NO.png	6	Definitely_YES.png	7	unsure_no.png	8	unsure_yes.png	9	ceremony	8
1	testBlock	centre_mouse	12	45	reveal	im0000126.jpg	N_1.png	1	N_2.png	2	N_3.png	3	N_4.png	4	Y_1.png	1	Y_2.png	2	Y_3.png	3	Y_4.png	4	confidence.png	1	guessing.png	2	respond_yes.png	3	respond_no.png	4	Word 5 of 12	1	Image 4 of 40	1	Definitely_NO.png	6	Definitely_YES.png	7	unsure_no.png	8	unsure_yes.png	9	reveal.png	5
1	testBlock	present_trial	13	40	no_2	im0000126.jpg	N_1.png	1	N_2.png	2	N_3.png	3	N_4.png	4	Y_1.png	1	Y_2.png	2	Y_3.png	3	Y_4.png	4	confidence.png	1	guessing.png	2	respond_yes.png	3	respond_no.png	4	Word 6 of 12	1	Image 4 of 40	1	Definitely_NO.png	6	Definitely_YES.png	7	unsure_no.png	8	unsure_yes.png	9	girl	6
1	testBlock	centre_mouse	14	61	reveal	im0000126.jpg	N_1.png	1	N_2.png	2	N_3.png	3	N_4.png	4	Y_1.png	1	Y_2.png	2	Y_3.png	3	Y_4.png	4	confidence.png	1	guessing.png	2	respond_yes.png	3	respond_no.png	4	Word 6 of 12	1	Image 4 of 40	1	Definitely_NO.png	6	Definitely_YES.png	7	unsure_no.png	8	unsure_yes.png	9	reveal.png	5
1	testBlock	absent_trial	15	55	no_3	im0000126.jpg	N_1.png	1	N_2.png	2	N_3.png	3	N_4.png	4	Y_1.png	1	Y_2.png	2	Y_3.png	3	Y_4.png	4	confidence.png	1	guessing.png	2	respond_yes.png	3	respond_no.png	4	Word 7 of 12	1	Image 4 of 40	1	Definitely_NO.png	6	Definitely_YES.png	7	unsure_no.png	8	unsure_yes.png	9	unknown	7
1	testBlock	centre_mouse	16	33	reveal	im0000126.jpg	N_1.png	1	N_2.png	2	N_3.png	3	N_4.png	4	Y_1.png	1	Y_2.png	2	Y_3.png	3	Y_4.png	4	confidence.png	1	guessing.png	2	respond_yes.png	3	respond_no.png	4	Word 7 of 12	1	Image 4 of 40	1	Definitely_NO.png	6	Definitely_YES.png	7	unsure_no.png	8	unsure_yes.png	9	reveal.png	5
1	testBlock	present_trial	17	45	yes_2	im0000126.jpg	N_1.png	1	N_2.png	2	N_3.png	3	N_4.png	4	Y_1.png	1	Y_2.png	2	Y_3.png	3	Y_4.png	4	confidence.png	1	guessing.png	2	respond_yes.png	3	respond_no.png	4	Word 8 of 12	1	Image 4 of 40	1	Definitely_NO.png	6	Definitely_YES.png	7	unsure_no.png	8	unsure_yes.png	9	write	4
1	testBlock	centre_mouse	18	50	reveal	im0000126.jpg	N_1.png	1	N_2.png	2	N_3.png	3	N_4.png	4	Y_1.png	1	Y_2.png	2	Y_3.png	3	Y_4.png	4	confidence.png	1	guessing.png	2	respond_yes.png	3	respond_no.png	4	Word 8 of 12	1	Image 4 of 40	1	Definitely_NO.png	6	Definitely_YES.png	7	unsure_no.png	8	unsure_yes.png	9	reveal.png	5
1	testBlock	present_trial	19	24	no_3	im0000126.jpg	N_1.png	1	N_2.png	2	N_3.png	3	N_4.png	4	Y_1.png	1	Y_2.png	2	Y_3.png	3	Y_4.png	4	confidence.png	1	guessing.png	2	respond_yes.png	3	respond_no.png	4	Word 9 of 12	1	Image 4 of 40	1	Definitely_NO.png	6	Definitely_YES.png	7	unsure_no.png	8	unsure_yes.png	9	paper	5
1	testBlock	centre_mouse	20	54	reveal	im0000126.jpg	N_1.png	1	N_2.png	2	N_3.png	3	N_4.png	4	Y_1.png	1	Y_2.png	2	Y_3.png	3	Y_4.png	4	confidence.png	1	guessing.png	2	respond_yes.png	3	respond_no.png	4	Word 9 of 12	1	Image 4 of 40	1	Definitely_NO.png	6	Definitely_YES.png	7	unsure_no.png	8	unsure_yes.png	9	reveal.png	5
1	testBlock	present_trial	21	54	yes_3	im0000126.jpg	N_1.png	1	N_2.png	2	N_3.png	3	N_4.png	4	Y_1.png	1	Y_2.png	2	Y_3.png	3	Y_4.png	4	confidence.png	1	guessing.png	2	respond_yes.png	3	respond_no.png	4	Word 10 of 12	1	Image 4 of 40	1	Definitely_NO.png	6	Definitely_YES.png	7	unsure_no.png	8	unsure_yes.png	9	desk	3
1	testBlock	centre_mouse	22	52	reveal	im0000126.jpg	N_1.png	1	N_2.png	2	N_3.png	3	N_4.png	4	Y_1.png	1	Y_2.png	2	Y_3.png	3	Y_4.png	4	confidence.png	1	guessing.png	2	respond_yes.png	3	respond_no.png	4	Word 10 of 12	1	Image 4 of 40	1	Definitely_NO.png	6	Definitely_YES.png	7	unsure_no.png	8	unsure_yes.png	9	reveal.png	5
1	testBlock	absent_trial	23	53	yes_3	im0000126.jpg	N_1.png	1	N_2.png	2	N_3.png	3	N_4.png	4	Y_1.png	1	Y_2.png	2	Y_3.png	3	Y_4.png	4	confidence.png	1	guessing.png	2	respond_yes.png	3	respond_no.png	4	Word 11 of 12	1	Image 4 of 40	1	Definitely_NO.png	6	Definitely_YES.png	7	unsure_no.png	8	unsure_yes.png	9	white-dress	9
1	testBlock	centre_mouse	24	62	reveal	im0000126.jpg	N_1.png	1	N_2.png	2	N_3.png	3	N_4.png	4	Y_1.png	1	Y_2.png	2	Y_3.png	3	Y_4.png	4	confidence.png	1	guessing.png	2	respond_yes.png	3	respond_no.png	4	Word 11 of 12	1	Image 4 of 40	1	Definitely_NO.png	6	Definitely_YES.png	7	unsure_no.png	8	unsure_yes.png	9	reveal.png	5
1	testBlock	absent_trial	25	51	no_3	im0000126.jpg	N_1.png	1	N_2.png	2	N_3.png	3	N_4.png	4	Y_1.png	1	Y_2.png	2	Y_3.png	3	Y_4.png	4	confidence.png	1	guessing.png	2	respond_yes.png	3	respond_no.png	4	Word 12 of 12	1	Image 4 of 40	1	Definitely_NO.png	6	Definitely_YES.png	7	unsure_no.png	8	unsure_yes.png	9	treadmill	4
1	testBlock	centre_mouse	26	53	reveal	im0000126.jpg	N_1.png	1	N_2.png	2	N_3.png	3	N_4.png	4	Y_1.png	1	Y_2.png	2	Y_3.png	3	Y_4.png	4	confidence.png	1	guessing.png	2	respond_yes.png	3	respond_no.png	4	Word 12 of 12	1	Image 4 of 40	1	Definitely_NO.png	6	Definitely_YES.png	7	unsure_no.png	8	unsure_yes.png	9	reveal.png	5
1	testBlock	test	1	1	0	im0000126.jpg	+	1	im0000282.jpg	26	mask1.jpg	1	mask5.jpg	5	mask2.jpg	2	mask2.jpg	2	mask5.jpg	5	0	0	0	0	0	0	0	0	0	0	0	0	0	0	0	0	0	0	0	0	0	0	0	0
1	testBlock	centre_mouse	2	56	reveal	im0000126.jpg	N_1.png	1	N_2.png	2	N_3.png	3	N_4.png	4	Y_1.png	1	Y_2.png	2	Y_3.png	3	Y_4.png	4	confidence.png	1	guessing.png	2	respond_yes.png	3	respond_no.png	4	Word 0 of 12	1	Image 5 of 40	1	Definitely_NO.png	6	Definitely_YES.png	7	unsure_no.png	8	unsure_yes.png	9	reveal.png	5
1	testBlock	absent_trial	3	43	yes_4	im0000126.jpg	N_1.png	1	N_2.png	2	N_3.png	3	N_4.png	4	Y_1.png	1	Y_2.png	2	Y_3.png	3	Y_4.png	4	confidence.png	1	guessing.png	2	respond_yes.png	3	respond_no.png	4	Word 1 of 12	1	Image 5 of 40	1	Definitely_NO.png	6	Definitely_YES.png	7	unsure_no.png	8	unsure_yes.png	9	bake	2
1	testBlock	centre_mouse	4	63	reveal	im0000126.jpg	N_1.png	1	N_2.png	2	N_3.png	3	N_4.png	4	Y_1.png	1	Y_2.png	2	Y_3.png	3	Y_4.png	4	confidence.png	1	guessing.png	2	respond_yes.png	3	respond_no.png	4	Word 1 of 12	1	Image 5 of 40	1	Definitely_NO.png	6	Definitely_YES.png	7	unsure_no.png	8	unsure_yes.png	9	reveal.png	5
1	testBlock	present_trial	5	54	yes_3	im0000282.jpg	N_1.png	1	N_2.png	2	N_3.png	3	N_4.png	4	Y_1.png	1	Y_2.png	2	Y_3.png	3	Y_4.png	4	confidence.png	1	guessing.png	2	respond_yes.png	3	respond_no.png	4	Word 2 of 12	1	Image 5 of 40	1	Definitely_NO.png	6	Definitely_YES.png	7	unsure_no.png	8	unsure_yes.png	9	sit	3
1	testBlock	centre_mouse	6	48	reveal	im0000282.jpg	N_1.png	1	N_2.png	2	N_3.png	3	N_4.png	4	Y_1.png	1	Y_2.png	2	Y_3.png	3	Y_4.png	4	confidence.png	1	guessing.png	2	respond_yes.png	3	respond_no.png	4	Word 2 of 12	1	Image 5 of 40	1	Definitely_NO.png	6	Definitely_YES.png	7	unsure_no.png	8	unsure_yes.png	9	reveal.png	5
1	testBlock	present_trial	7	52	no_2	im0000282.jpg	N_1.png	1	N_2.png	2	N_3.png	3	N_4.png	4	Y_1.png	1	Y_2.png	2	Y_3.png	3	Y_4.png	4	confidence.png	1	guessing.png	2	respond_yes.png	3	respond_no.png	4	Word 3 of 12	1	Image 5 of 40	1	Definitely_NO.png	6	Definitely_YES.png	7	unsure_no.png	8	unsure_yes.png	9	dirt	6
1	testBlock	centre_mouse	8	44	reveal	im0000282.jpg	N_1.png	1	N_2.png	2	N_3.png	3	N_4.png	4	Y_1.png	1	Y_2.png	2	Y_3.png	3	Y_4.png	4	confidence.png	1	guessing.png	2	respond_yes.png	3	respond_no.png	4	Word 3 of 12	1	Image 5 of 40	1	Definitely_NO.png	6	Definitely_YES.png	7	unsure_no.png	8	unsure_yes.png	9	reveal.png	5
1	testBlock	present_trial	9	53	no_3	im0000282.jpg	N_1.png	1	N_2.png	2	N_3.png	3	N_4.png	4	Y_1.png	1	Y_2.png	2	Y_3.png	3	Y_4.png	4	confidence.png	1	guessing.png	2	respond_yes.png	3	respond_no.png	4	Word 4 of 12	1	Image 5 of 40	1	Definitely_NO.png	6	Definitely_YES.png	7	unsure_no.png	8	unsure_yes.png	9	grass	2
1	testBlock	centre_mouse	10	51	reveal	im0000282.jpg	N_1.png	1	N_2.png	2	N_3.png	3	N_4.png	4	Y_1.png	1	Y_2.png	2	Y_3.png	3	Y_4.png	4	confidence.png	1	guessing.png	2	respond_yes.png	3	respond_no.png	4	Word 4 of 12	1	Image 5 of 40	1	Definitely_NO.png	6	Definitely_YES.png	7	unsure_no.png	8	unsure_yes.png	9	reveal.png	5
1	testBlock	present_trial	11	33	no_2	im0000282.jpg	N_1.png	1	N_2.png	2	N_3.png	3	N_4.png	4	Y_1.png	1	Y_2.png	2	Y_3.png	3	Y_4.png	4	confidence.png	1	guessing.png	2	respond_yes.png	3	respond_no.png	4	Word 5 of 12	1	Image 5 of 40	1	Definitely_NO.png	6	Definitely_YES.png	7	unsure_no.png	8	unsure_yes.png	9	animal	5
1	testBlock	centre_mouse	12	42	reveal	im0000282.jpg	N_1.png	1	N_2.png	2	N_3.png	3	N_4.png	4	Y_1.png	1	Y_2.png	2	Y_3.png	3	Y_4.png	4	confidence.png	1	guessing.png	2	respond_yes.png	3	respond_no.png	4	Word 5 of 12	1	Image 5 of 40	1	Definitely_NO.png	6	Definitely_YES.png	7	unsure_no.png	8	unsure_yes.png	9	reveal.png	5
1	testBlock	absent_trial	13	51	no_2	im0000282.jpg	N_1.png	1	N_2.png	2	N_3.png	3	N_4.png	4	Y_1.png	1	Y_2.png	2	Y_3.png	3	Y_4.png	4	confidence.png	1	guessing.png	2	respond_yes.png	3	respond_no.png	4	Word 6 of 12	1	Image 5 of 40	1	Definitely_NO.png	6	Definitely_YES.png	7	unsure_no.png	8	unsure_yes.png	9	lion	1
1	testBlock	centre_mouse	14	50	reveal	im0000282.jpg	N_1.png	1	N_2.png	2	N_3.png	3	N_4.png	4	Y_1.png	1	Y_2.png	2	Y_3.png	3	Y_4.png	4	confidence.png	1	guessing.png	2	respond_yes.png	3	respond_no.png	4	Word 6 of 12	1	Image 5 of 40	1	Definitely_NO.png	6	Definitely_YES.png	7	unsure_no.png	8	unsure_yes.png	9	reveal.png	5
1	testBlock	absent_trial	15	29	yes_4	im0000282.jpg	N_1.png	1	N_2.png	2	N_3.png	3	N_4.png	4	Y_1.png	1	Y_2.png	2	Y_3.png	3	Y_4.png	4	confidence.png	1	guessing.png	2	respond_yes.png	3	respond_no.png	4	Word 7 of 12	1	Image 5 of 40	1	Definitely_NO.png	6	Definitely_YES.png	7	unsure_no.png	8	unsure_yes.png	9	sand	3
1	testBlock	centre_mouse	16	64	reveal	im0000282.jpg	N_1.png	1	N_2.png	2	N_3.png	3	N_4.png	4	Y_1.png	1	Y_2.png	2	Y_3.png	3	Y_4.png	4	confidence.png	1	guessing.png	2	respond_yes.png	3	respond_no.png	4	Word 7 of 12	1	Image 5 of 40	1	Definitely_NO.png	6	Definitely_YES.png	7	unsure_no.png	8	unsure_yes.png	9	reveal.png	5
1	testBlock	absent_trial	17	40	no_3	im0000282.jpg	N_1.png	1	N_2.png	2	N_3.png	3	N_4.png	4	Y_1.png	1	Y_2.png	2	Y_3.png	3	Y_4.png	4	confidence.png	1	guessing.png	2	respond_yes.png	3	respond_no.png	4	Word 8 of 12	1	Image 5 of 40	1	Definitely_NO.png	6	Definitely_YES.png	7	unsure_no.png	8	unsure_yes.png	9	dry	5
1	testBlock	centre_mouse	18	64	reveal	im0000282.jpg	N_1.png	1	N_2.png	2	N_3.png	3	N_4.png	4	Y_1.png	1	Y_2.png	2	Y_3.png	3	Y_4.png	4	confidence.png	1	guessing.png	2	respond_yes.png	3	respond_no.png	4	Word 8 of 12	1	Image 5 of 40	1	Definitely_NO.png	6	Definitely_YES.png	7	unsure_no.png	8	unsure_yes.png	9	reveal.png	5
1	testBlock	present_trial	19	47	yes_1	im0000282.jpg	N_1.png	1	N_2.png	2	N_3.png	3	N_4.png	4	Y_1.png	1	Y_2.png	2	Y_3.png	3	Y_4.png	4	confidence.png	1	guessing.png	2	respond_yes.png	3	respond_no.png	4	Word 9 of 12	1	Image 5 of 40	1	Definitely_NO.png	6	Definitely_YES.png	7	unsure_no.png	8	unsure_yes.png	9	sheep	1
1	testBlock	centre_mouse	20	48	reveal	im0000282.jpg	N_1.png	1	N_2.png	2	N_3.png	3	N_4.png	4	Y_1.png	1	Y_2.png	2	Y_3.png	3	Y_4.png	4	confidence.png	1	guessing.png	2	respond_yes.png	3	respond_no.png	4	Word 9 of 12	1	Image 5 of 40	1	Definitely_NO.png	6	Definitely_YES.png	7	unsure_no.png	8	unsure_yes.png	9	reveal.png	5
1	testBlock	absent_trial	21	25	no_4	im0000282.jpg	N_1.png	1	N_2.png	2	N_3.png	3	N_4.png	4	Y_1.png	1	Y_2.png	2	Y_3.png	3	Y_4.png	4	confidence.png	1	guessing.png	2	respond_yes.png	3	respond_no.png	4	Word 10 of 12	1	Image 5 of 40	1	Definitely_NO.png	6	Definitely_YES.png	7	unsure_no.png	8	unsure_yes.png	9	path	7
1	testBlock	centre_mouse	22	50	reveal	im0000282.jpg	N_1.png	1	N_2.png	2	N_3.png	3	N_4.png	4	Y_1.png	1	Y_2.png	2	Y_3.png	3	Y_4.png	4	confidence.png	1	guessing.png	2	respond_yes.png	3	respond_no.png	4	Word 10 of 12	1	Image 5 of 40	1	Definitely_NO.png	6	Definitely_YES.png	7	unsure_no.png	8	unsure_yes.png	9	reveal.png	5
1	testBlock	present_trial	23	35	yes_3	im0000282.jpg	N_1.png	1	N_2.png	2	N_3.png	3	N_4.png	4	Y_1.png	1	Y_2.png	2	Y_3.png	3	Y_4.png	4	confidence.png	1	guessing.png	2	respond_yes.png	3	respond_no.png	4	Word 11 of 12	1	Image 5 of 40	1	Definitely_NO.png	6	Definitely_YES.png	7	unsure_no.png	8	unsure_yes.png	9	rabbit	4
1	testBlock	centre_mouse	24	48	reveal	im0000282.jpg	N_1.png	1	N_2.png	2	N_3.png	3	N_4.png	4	Y_1.png	1	Y_2.png	2	Y_3.png	3	Y_4.png	4	confidence.png	1	guessing.png	2	respond_yes.png	3	respond_no.png	4	Word 11 of 12	1	Image 5 of 40	1	Definitely_NO.png	6	Definitely_YES.png	7	unsure_no.png	8	unsure_yes.png	9	reveal.png	5
1	testBlock	absent_trial	25	39	yes_3	im0000282.jpg	N_1.png	1	N_2.png	2	N_3.png	3	N_4.png	4	Y_1.png	1	Y_2.png	2	Y_3.png	3	Y_4.png	4	confidence.png	1	guessing.png	2	respond_yes.png	3	respond_no.png	4	Word 12 of 12	1	Image 5 of 40	1	Definitely_NO.png	6	Definitely_YES.png	7	unsure_no.png	8	unsure_yes.png	9	sing	10
1	testBlock	centre_mouse	26	60	reveal	im0000282.jpg	N_1.png	1	N_2.png	2	N_3.png	3	N_4.png	4	Y_1.png	1	Y_2.png	2	Y_3.png	3	Y_4.png	4	confidence.png	1	guessing.png	2	respond_yes.png	3	respond_no.png	4	Word 12 of 12	1	Image 5 of 40	1	Definitely_NO.png	6	Definitely_YES.png	7	unsure_no.png	8	unsure_yes.png	9	reveal.png	5
1	testBlock	test	1	1	0	im0000282.jpg	+	1	im0000390.jpg	38	mask2.jpg	2	mask2.jpg	2	mask4.jpg	4	mask3.jpg	3	mask4.jpg	4	0	0	0	0	0	0	0	0	0	0	0	0	0	0	0	0	0	0	0	0	0	0	0	0
1	testBlock	centre_mouse	2	51	reveal	im0000282.jpg	N_1.png	1	N_2.png	2	N_3.png	3	N_4.png	4	Y_1.png	1	Y_2.png	2	Y_3.png	3	Y_4.png	4	confidence.png	1	guessing.png	2	respond_yes.png	3	respond_no.png	4	Word 0 of 12	1	Image 6 of 40	1	Definitely_NO.png	6	Definitely_YES.png	7	unsure_no.png	8	unsure_yes.png	9	reveal.png	5
1	testBlock	present_trial	3	36	yes_4	im0000390.jpg	N_1.png	1	N_2.png	2	N_3.png	3	N_4.png	4	Y_1.png	1	Y_2.png	2	Y_3.png	3	Y_4.png	4	confidence.png	1	guessing.png	2	respond_yes.png	3	respond_no.png	4	Word 1 of 12	1	Image 6 of 40	1	Definitely_NO.png	6	Definitely_YES.png	7	unsure_no.png	8	unsure_yes.png	9	bat	3
1	testBlock	centre_mouse	4	43	reveal	im0000390.jpg	N_1.png	1	N_2.png	2	N_3.png	3	N_4.png	4	Y_1.png	1	Y_2.png	2	Y_3.png	3	Y_4.png	4	confidence.png	1	guessing.png	2	respond_yes.png	3	respond_no.png	4	Word 1 of 12	1	Image 6 of 40	1	Definitely_NO.png	6	Definitely_YES.png	7	unsure_no.png	8	unsure_yes.png	9	reveal.png	5
1	testBlock	absent_trial	5	35	yes_2	im0000390.jpg	N_1.png	1	N_2.png	2	N_3.png	3	N_4.png	4	Y_1.png	1	Y_2.png	2	Y_3.png	3	Y_4.png	4	confidence.png	1	guessing.png	2	respond_yes.png	3	respond_no.png	4	Word 2 of 12	1	Image 6 of 40	1	Definitely_NO.png	6	Definitely_YES.png	7	unsure_no.png	8	unsure_yes.png	9	fire	9
1	testBlock	centre_mouse	6	59	reveal	im0000390.jpg	N_1.png	1	N_2.png	2	N_3.png	3	N_4.png	4	Y_1.png	1	Y_2.png	2	Y_3.png	3	Y_4.png	4	confidence.png	1	guessing.png	2	respond_yes.png	3	respond_no.png	4	Word 2 of 12	1	Image 6 of 40	1	Definitely_NO.png	6	Definitely_YES.png	7	unsure_no.png	8	unsure_yes.png	9	reveal.png	5
1	testBlock	present_trial	7	53	yes_1	im0000390.jpg	N_1.png	1	N_2.png	2	N_3.png	3	N_4.png	4	Y_1.png	1	Y_2.png	2	Y_3.png	3	Y_4.png	4	confidence.png	1	guessing.png	2	respond_yes.png	3	respond_no.png	4	Word 3 of 12	1	Image 6 of 40	1	Definitely_NO.png	6	Definitely_YES.png	7	unsure_no.png	8	unsure_yes.png	9	hit	5
1	testBlock	centre_mouse	8	46	reveal	im0000390.jpg	N_1.png	1	N_2.png	2	N_3.png	3	N_4.png	4	Y_1.png	1	Y_2.png	2	Y_3.png	3	Y_4.png	4	confidence.png	1	guessing.png	2	respond_yes.png	3	respond_no.png	4	Word 3 of 12	1	Image 6 of 40	1	Definitely_NO.png	6	Definitely_YES.png	7	unsure_no.png	8	unsure_yes.png	9	reveal.png	5
1	testBlock	present_trial	9	41	yes_4	im0000390.jpg	N_1.png	1	N_2.png	2	N_3.png	3	N_4.png	4	Y_1.png	1	Y_2.png	2	Y_3.png	3	Y_4.png	4	confidence.png	1	guessing.png	2	respond_yes.png	3	respond_no.png	4	Word 4 of 12	1	Image 6 of 40	1	Definitely_NO.png	6	Definitely_YES.png	7	unsure_no.png	8	unsure_yes.png	9	hand	6
1	testBlock	centre_mouse	10	60	reveal	im0000390.jpg	N_1.png	1	N_2.png	2	N_3.png	3	N_4.png	4	Y_1.png	1	Y_2.png	2	Y_3.png	3	Y_4.png	4	confidence.png	1	guessing.png	2	respond_yes.png	3	respond_no.png	4	Word 4 of 12	1	Image 6 of 40	1	Definitely_NO.png	6	Definitely_YES.png	7	unsure_no.png	8	unsure_yes.png	9	reveal.png	5
1	testBlock	absent_trial	11	49	no_2	im0000390.jpg	N_1.png	1	N_2.png	2	N_3.png	3	N_4.png	4	Y_1.png	1	Y_2.png	2	Y_3.png	3	Y_4.png	4	confidence.png	1	guessing.png	2	respond_yes.png	3	respond_no.png	4	Word 5 of 12	1	Image 6 of 40	1	Definitely_NO.png	6	Definitely_YES.png	7	unsure_no.png	8	unsure_yes.png	9	monster-truck	4
1	testBlock	centre_mouse	12	47	reveal	im0000390.jpg	N_1.png	1	N_2.png	2	N_3.png	3	N_4.png	4	Y_1.png	1	Y_2.png	2	Y_3.png	3	Y_4.png	4	confidence.png	1	guessing.png	2	respond_yes.png	3	respond_no.png	4	Word 5 of 12	1	Image 6 of 40	1	Definitely_NO.png	6	Definitely_YES.png	7	unsure_no.png	8	unsure_yes.png	9	reveal.png	5
1	testBlock	present_trial	13	47	no_4	im0000390.jpg	N_1.png	1	N_2.png	2	N_3.png	3	N_4.png	4	Y_1.png	1	Y_2.png	2	Y_3.png	3	Y_4.png	4	confidence.png	1	guessing.png	2	respond_yes.png	3	respond_no.png	4	Word 6 of 12	1	Image 6 of 40	1	Definitely_NO.png	6	Definitely_YES.png	7	unsure_no.png	8	unsure_yes.png	9	play	2
1	testBlock	centre_mouse	14	64	reveal	im0000390.jpg	N_1.png	1	N_2.png	2	N_3.png	3	N_4.png	4	Y_1.png	1	Y_2.png	2	Y_3.png	3	Y_4.png	4	confidence.png	1	guessing.png	2	respond_yes.png	3	respond_no.png	4	Word 6 of 12	1	Image 6 of 40	1	Definitely_NO.png	6	Definitely_YES.png	7	unsure_no.png	8	unsure_yes.png	9	reveal.png	5
1	testBlock	present_trial	15	22	yes_1	im0000390.jpg	N_1.png	1	N_2.png	2	N_3.png	3	N_4.png	4	Y_1.png	1	Y_2.png	2	Y_3.png	3	Y_4.png	4	confidence.png	1	guessing.png	2	respond_yes.png	3	respond_no.png	4	Word 7 of 12	1	Image 6 of 40	1	Definitely_NO.png	6	Definitely_YES.png	7	unsure_no.png	8	unsure_yes.png	9	game	4
1	testBlock	centre_mouse	16	43	reveal	im0000390.jpg	N_1.png	1	N_2.png	2	N_3.png	3	N_4.png	4	Y_1.png	1	Y_2.png	2	Y_3.png	3	Y_4.png	4	confidence.png	1	guessing.png	2	respond_yes.png	3	respond_no.png	4	Word 7 of 12	1	Image 6 of 40	1	Definitely_NO.png	6	Definitely_YES.png	7	unsure_no.png	8	unsure_yes.png	9	reveal.png	5
1	testBlock	absent_trial	17	49	no_3	im0000390.jpg	N_1.png	1	N_2.png	2	N_3.png	3	N_4.png	4	Y_1.png	1	Y_2.png	2	Y_3.png	3	Y_4.png	4	confidence.png	1	guessing.png	2	respond_yes.png	3	respond_no.png	4	Word 8 of 12	1	Image 6 of 40	1	Definitely_NO.png	6	Definitely_YES.png	7	unsure_no.png	8	unsure_yes.png	9	geyser	6
1	testBlock	centre_mouse	18	42	reveal	im0000390.jpg	N_1.png	1	N_2.png	2	N_3.png	3	N_4.png	4	Y_1.png	1	Y_2.png	2	Y_3.png	3	Y_4.png	4	confidence.png	1	guessing.png	2	respond_yes.png	3	respond_no.png	4	Word 8 of 12	1	Image 6 of 40	1	Definitely_NO.png	6	Definitely_YES.png	7	unsure_no.png	8	unsure_yes.png	9	reveal.png	5
1	testBlock	present_trial	19	34	no_2	im0000390.jpg	N_1.png	1	N_2.png	2	N_3.png	3	N_4.png	4	Y_1.png	1	Y_2.png	2	Y_3.png	3	Y_4.png	4	confidence.png	1	guessing.png	2	respond_yes.png	3	respond_no.png	4	Word 9 of 12	1	Image 6 of 40	1	Definitely_NO.png	6	Definitely_YES.png	7	unsure_no.png	8	unsure_yes.png	9	ball	1
1	testBlock	centre_mouse	20	34	reveal	im0000390.jpg	N_1.png	1	N_2.png	2	N_3.png	3	N_4.png	4	Y_1.png	1	Y_2.png	2	Y_3.png	3	Y_4.png	4	confidence.png	1	guessing.png	2	respond_yes.png	3	respond_no.png	4	Word 9 of 12	1	Image 6 of 40	1	Definitely_NO.png	6	Definitely_YES.png	7	unsure_no.png	8	unsure_yes.png	9	reveal.png	5
1	testBlock	absent_trial	21	39	no_4	im0000390.jpg	N_1.png	1	N_2.png	2	N_3.png	3	N_4.png	4	Y_1.png	1	Y_2.png	2	Y_3.png	3	Y_4.png	4	confidence.png	1	guessing.png	2	respond_yes.png	3	respond_no.png	4	Word 10 of 12	1	Image 6 of 40	1	Definitely_NO.png	6	Definitely_YES.png	7	unsure_no.png	8	unsure_yes.png	9	interstate	5
1	testBlock	centre_mouse	22	51	reveal	im0000390.jpg	N_1.png	1	N_2.png	2	N_3.png	3	N_4.png	4	Y_1.png	1	Y_2.png	2	Y_3.png	3	Y_4.png	4	confidence.png	1	guessing.png	2	respond_yes.png	3	respond_no.png	4	Word 10 of 12	1	Image 6 of 40	1	Definitely_NO.png	6	Definitely_YES.png	7	unsure_no.png	8	unsure_yes.png	9	reveal.png	5
1	testBlock	absent_trial	23	40	yes_2	im0000390.jpg	N_1.png	1	N_2.png	2	N_3.png	3	N_4.png	4	Y_1.png	1	Y_2.png	2	Y_3.png	3	Y_4.png	4	confidence.png	1	guessing.png	2	respond_yes.png	3	respond_no.png	4	Word 11 of 12	1	Image 6 of 40	1	Definitely_NO.png	6	Definitely_YES.png	7	unsure_no.png	8	unsure_yes.png	9	volleyball	2
1	testBlock	centre_mouse	24	57	reveal	im0000390.jpg	N_1.png	1	N_2.png	2	N_3.png	3	N_4.png	4	Y_1.png	1	Y_2.png	2	Y_3.png	3	Y_4.png	4	confidence.png	1	guessing.png	2	respond_yes.png	3	respond_no.png	4	Word 11 of 12	1	Image 6 of 40	1	Definitely_NO.png	6	Definitely_YES.png	7	unsure_no.png	8	unsure_yes.png	9	reveal.png	5
1	testBlock	absent_trial	25	45	no_2	im0000390.jpg	N_1.png	1	N_2.png	2	N_3.png	3	N_4.png	4	Y_1.png	1	Y_2.png	2	Y_3.png	3	Y_4.png	4	confidence.png	1	guessing.png	2	respond_yes.png	3	respond_no.png	4	Word 12 of 12	1	Image 6 of 40	1	Definitely_NO.png	6	Definitely_YES.png	7	unsure_no.png	8	unsure_yes.png	9	road	3
1	testBlock	centre_mouse	26	70	reveal	im0000390.jpg	N_1.png	1	N_2.png	2	N_3.png	3	N_4.png	4	Y_1.png	1	Y_2.png	2	Y_3.png	3	Y_4.png	4	confidence.png	1	guessing.png	2	respond_yes.png	3	respond_no.png	4	Word 12 of 12	1	Image 6 of 40	1	Definitely_NO.png	6	Definitely_YES.png	7	unsure_no.png	8	unsure_yes.png	9	reveal.png	5
1	testBlock	test	1	1	0	im0000390.jpg	+	1	im0000308.jpg	29	mask3.jpg	3	mask3.jpg	3	mask3.jpg	3	mask5.jpg	5	mask3.jpg	3	0	0	0	0	0	0	0	0	0	0	0	0	0	0	0	0	0	0	0	0	0	0	0	0
1	testBlock	centre_mouse	2	48	reveal	im0000390.jpg	N_1.png	1	N_2.png	2	N_3.png	3	N_4.png	4	Y_1.png	1	Y_2.png	2	Y_3.png	3	Y_4.png	4	confidence.png	1	guessing.png	2	respond_yes.png	3	respond_no.png	4	Word 0 of 12	1	Image 7 of 40	1	Definitely_NO.png	6	Definitely_YES.png	7	unsure_no.png	8	unsure_yes.png	9	reveal.png	5
1	testBlock	absent_trial	3	43	yes_2	im0000390.jpg	N_1.png	1	N_2.png	2	N_3.png	3	N_4.png	4	Y_1.png	1	Y_2.png	2	Y_3.png	3	Y_4.png	4	confidence.png	1	guessing.png	2	respond_yes.png	3	respond_no.png	4	Word 1 of 12	1	Image 7 of 40	1	Definitely_NO.png	6	Definitely_YES.png	7	unsure_no.png	8	unsure_yes.png	9	white-paper	4
1	testBlock	centre_mouse	4	54	reveal	im0000390.jpg	N_1.png	1	N_2.png	2	N_3.png	3	N_4.png	4	Y_1.png	1	Y_2.png	2	Y_3.png	3	Y_4.png	4	confidence.png	1	guessing.png	2	respond_yes.png	3	respond_no.png	4	Word 1 of 12	1	Image 7 of 40	1	Definitely_NO.png	6	Definitely_YES.png	7	unsure_no.png	8	unsure_yes.png	9	reveal.png	5
1	testBlock	present_trial	5	38	yes_3	im0000308.jpg	N_1.png	1	N_2.png	2	N_3.png	3	N_4.png	4	Y_1.png	1	Y_2.png	2	Y_3.png	3	Y_4.png	4	confidence.png	1	guessing.png	2	respond_yes.png	3	respond_no.png	4	Word 2 of 12	1	Image 7 of 40	1	Definitely_NO.png	6	Definitely_YES.png	7	unsure_no.png	8	unsure_yes.png	9	shop	2
1	testBlock	centre_mouse	6	28	reveal	im0000308.jpg	N_1.png	1	N_2.png	2	N_3.png	3	N_4.png	4	Y_1.png	1	Y_2.png	2	Y_3.png	3	Y_4.png	4	confidence.png	1	guessing.png	2	respond_yes.png	3	respond_no.png	4	Word 2 of 12	1	Image 7 of 40	1	Definitely_NO.png	6	Definitely_YES.png	7	unsure_no.png	8	unsure_yes.png	9	reveal.png	5
1	testBlock	present_trial	7	41	yes_4	im0000308.jpg	N_1.png	1	N_2.png	2	N_3.png	3	N_4.png	4	Y_1.png	1	Y_2.png	2	Y_3.png	3	Y_4.png	4	confidence.png	1	guessing.png	2	respond_yes.png	3	respond_no.png	4	Word 3 of 12	1	Image 7 of 40	1	Definitely_NO.png	6	Definitely_YES.png	7	unsure_no.png	8	unsure_yes.png	9	store	4
1	testBlock	centre_mouse	8	29	reveal	im0000308.jpg	N_1.png	1	N_2.png	2	N_3.png	3	N_4.png	4	Y_1.png	1	Y_2.png	2	Y_3.png	3	Y_4.png	4	confidence.png	1	guessing.png	2	respond_yes.png	3	respond_no.png	4	Word 3 of 12	1	Image 7 of 40	1	Definitely_NO.png	6	Definitely_YES.png	7	unsure_no.png	8	unsure_yes.png	9	reveal.png	5
1	testBlock	present_trial	9	35	yes_2	im0000308.jpg	N_1.png	1	N_2.png	2	N_3.png	3	N_4.png	4	Y_1.png	1	Y_2.png	2	Y_3.png	3	Y_4.png	4	confidence.png	1	guessing.png	2	respond_yes.png	3	respond_no.png	4	Word 4 of 12	1	Image 7 of 40	1	Definitely_NO.png	6	Definitely_YES.png	7	unsure_no.png	8	unsure_yes.png	9	people	5
1	testBlock	centre_mouse	10	60	reveal	im0000308.jpg	N_1.png	1	N_2.png	2	N_3.png	3	N_4.png	4	Y_1.png	1	Y_2.png	2	Y_3.png	3	Y_4.png	4	confidence.png	1	guessing.png	2	respond_yes.png	3	respond_no.png	4	Word 4 of 12	1	Image 7 of 40	1	Definitely_NO.png	6	Definitely_YES.png	7	unsure_no.png	8	unsure_yes.png	9	reveal.png	5
1	testBlock	absent_trial	11	29	no_2	im0000308.jpg	N_1.png	1	N_2.png	2	N_3.png	3	N_4.png	4	Y_1.png	1	Y_2.png	2	Y_3.png	3	Y_4.png	4	confidence.png	1	guessing.png	2	respond_yes.png	3	respond_no.png	4	Word 5 of 12	1	Image 7 of 40	1	Definitely_NO.png	6	Definitely_YES.png	7	unsure_no.png	8	unsure_yes.png	9	eiffel-tower	6
1	testBlock	centre_mouse	12	49	reveal	im0000308.jpg	N_1.png	1	N_2.png	2	N_3.png	3	N_4.png	4	Y_1.png	1	Y_2.png	2	Y_3.png	3	Y_4.png	4	confidence.png	1	guessing.png	2	respond_yes.png	3	respond_no.png	4	Word 5 of 12	1	Image 7 of 40	1	Definitely_NO.png	6	Definitely_YES.png	7	unsure_no.png	8	unsure_yes.png	9	reveal.png	5
1	testBlock	absent_trial	13	40	yes_1	im0000308.jpg	N_1.png	1	N_2.png	2	N_3.png	3	N_4.png	4	Y_1.png	1	Y_2.png	2	Y_3.png	3	Y_4.png	4	confidence.png	1	guessing.png	2	respond_yes.png	3	respond_no.png	4	Word 6 of 12	1	Image 7 of 40	1	Definitely_NO.png	6	Definitely_YES.png	7	unsure_no.png	8	unsure_yes.png	9	US-flag	5
1	testBlock	centre_mouse	14	45	reveal	im0000308.jpg	N_1.png	1	N_2.png	2	N_3.png	3	N_4.png	4	Y_1.png	1	Y_2.png	2	Y_3.png	3	Y_4.png	4	confidence.png	1	guessing.png	2	respond_yes.png	3	respond_no.png	4	Word 6 of 12	1	Image 7 of 40	1	Definitely_NO.png	6	Definitely_YES.png	7	unsure_no.png	8	unsure_yes.png	9	reveal.png	5
1	testBlock	present_trial	15	41	no_3	im0000308.jpg	N_1.png	1	N_2.png	2	N_3.png	3	N_4.png	4	Y_1.png	1	Y_2.png	2	Y_3.png	3	Y_4.png	4	confidence.png	1	guessing.png	2	respond_yes.png	3	respond_no.png	4	Word 7 of 12	1	Image 7 of 40	1	Definitely_NO.png	6	Definitely_YES.png	7	unsure_no.png	8	unsure_yes.png	9	car	3
1	testBlock	centre_mouse	16	71	reveal	im0000308.jpg	N_1.png	1	N_2.png	2	N_3.png	3	N_4.png	4	Y_1.png	1	Y_2.png	2	Y_3.png	3	Y_4.png	4	confidence.png	1	guessing.png	2	respond_yes.png	3	respond_no.png	4	Word 7 of 12	1	Image 7 of 40	1	Definitely_NO.png	6	Definitely_YES.png	7	unsure_no.png	8	unsure_yes.png	9	reveal.png	5
1	testBlock	absent_trial	17	63	no_3	im0000308.jpg	N_1.png	1	N_2.png	2	N_3.png	3	N_4.png	4	Y_1.png	1	Y_2.png	2	Y_3.png	3	Y_4.png	4	confidence.png	1	guessing.png	2	respond_yes.png	3	respond_no.png	4	Word 8 of 12	1	Image 7 of 40	1	Definitely_NO.png	6	Definitely_YES.png	7	unsure_no.png	8	unsure_yes.png	9	team	3
1	testBlock	centre_mouse	18	62	reveal	im0000308.jpg	N_1.png	1	N_2.png	2	N_3.png	3	N_4.png	4	Y_1.png	1	Y_2.png	2	Y_3.png	3	Y_4.png	4	confidence.png	1	guessing.png	2	respond_yes.png	3	respond_no.png	4	Word 8 of 12	1	Image 7 of 40	1	Definitely_NO.png	6	Definitely_YES.png	7	unsure_no.png	8	unsure_yes.png	9	reveal.png	5
1	testBlock	present_trial	19	43	no_1	im0000308.jpg	N_1.png	1	N_2.png	2	N_3.png	3	N_4.png	4	Y_1.png	1	Y_2.png	2	Y_3.png	3	Y_4.png	4	confidence.png	1	guessing.png	2	respond_yes.png	3	respond_no.png	4	Word 9 of 12	1	Image 7 of 40	1	Definitely_NO.png	6	Definitely_YES.png	7	unsure_no.png	8	unsure_yes.png	9	build	6
1	testBlock	centre_mouse	20	43	reveal	im0000308.jpg	N_1.png	1	N_2.png	2	N_3.png	3	N_4.png	4	Y_1.png	1	Y_2.png	2	Y_3.png	3	Y_4.png	4	confidence.png	1	guessing.png	2	respond_yes.png	3	respond_no.png	4	Word 9 of 12	1	Image 7 of 40	1	Definitely_NO.png	6	Definitely_YES.png	7	unsure_no.png	8	unsure_yes.png	9	reveal.png	5
1	testBlock	present_trial	21	45	yes_2	im0000308.jpg	N_1.png	1	N_2.png	2	N_3.png	3	N_4.png	4	Y_1.png	1	Y_2.png	2	Y_3.png	3	Y_4.png	4	confidence.png	1	guessing.png	2	respond_yes.png	3	respond_no.png	4	Word 10 of 12	1	Image 7 of 40	1	Definitely_NO.png	6	Definitely_YES.png	7	unsure_no.png	8	unsure_yes.png	9	street	1
1	testBlock	centre_mouse	22	45	reveal	im0000308.jpg	N_1.png	1	N_2.png	2	N_3.png	3	N_4.png	4	Y_1.png	1	Y_2.png	2	Y_3.png	3	Y_4.png	4	confidence.png	1	guessing.png	2	respond_yes.png	3	respond_no.png	4	Word 10 of 12	1	Image 7 of 40	1	Definitely_NO.png	6	Definitely_YES.png	7	unsure_no.png	8	unsure_yes.png	9	reveal.png	5
1	testBlock	absent_trial	23	31	no_2	im0000308.jpg	N_1.png	1	N_2.png	2	N_3.png	3	N_4.png	4	Y_1.png	1	Y_2.png	2	Y_3.png	3	Y_4.png	4	confidence.png	1	guessing.png	2	respond_yes.png	3	respond_no.png	4	Word 11 of 12	1	Image 7 of 40	1	Definitely_NO.png	6	Definitely_YES.png	7	unsure_no.png	8	unsure_yes.png	9	cash	2
1	testBlock	centre_mouse	24	56	reveal	im0000308.jpg	N_1.png	1	N_2.png	2	N_3.png	3	N_4.png	4	Y_1.png	1	Y_2.png	2	Y_3.png	3	Y_4.png	4	confidence.png	1	guessing.png	2	respond_yes.png	3	respond_no.png	4	Word 11 of 12	1	Image 7 of 40	1	Definitely_NO.png	6	Definitely_YES.png	7	unsure_no.png	8	unsure_yes.png	9	reveal.png	5
1	testBlock	absent_trial	25	51	yes_2	im0000308.jpg	N_1.png	1	N_2.png	2	N_3.png	3	N_4.png	4	Y_1.png	1	Y_2.png	2	Y_3.png	3	Y_4.png	4	confidence.png	1	guessing.png	2	respond_yes.png	3	respond_no.png	4	Word 12 of 12	1	Image 7 of 40	1	Definitely_NO.png	6	Definitely_YES.png	7	unsure_no.png	8	unsure_yes.png	9	pear	9
1	testBlock	centre_mouse	26	40	reveal	im0000308.jpg	N_1.png	1	N_2.png	2	N_3.png	3	N_4.png	4	Y_1.png	1	Y_2.png	2	Y_3.png	3	Y_4.png	4	confidence.png	1	guessing.png	2	respond_yes.png	3	respond_no.png	4	Word 12 of 12	1	Image 7 of 40	1	Definitely_NO.png	6	Definitely_YES.png	7	unsure_no.png	8	unsure_yes.png	9	reveal.png	5
1	testBlock	test	1	1	0	im0000308.jpg	+	1	im0000205.jpg	16	mask2.jpg	2	mask5.jpg	5	mask1.jpg	1	mask2.jpg	2	mask2.jpg	2	0	0	0	0	0	0	0	0	0	0	0	0	0	0	0	0	0	0	0	0	0	0	0	0
1	testBlock	centre_mouse	2	27	reveal	im0000308.jpg	N_1.png	1	N_2.png	2	N_3.png	3	N_4.png	4	Y_1.png	1	Y_2.png	2	Y_3.png	3	Y_4.png	4	confidence.png	1	guessing.png	2	respond_yes.png	3	respond_no.png	4	Word 0 of 12	1	Image 8 of 40	1	Definitely_NO.png	6	Definitely_YES.png	7	unsure_no.png	8	unsure_yes.png	9	reveal.png	5
1	testBlock	absent_trial	3	40	no_2	im0000308.jpg	N_1.png	1	N_2.png	2	N_3.png	3	N_4.png	4	Y_1.png	1	Y_2.png	2	Y_3.png	3	Y_4.png	4	confidence.png	1	guessing.png	2	respond_yes.png	3	respond_no.png	4	Word 1 of 12	1	Image 8 of 40	1	Definitely_NO.png	6	Definitely_YES.png	7	unsure_no.png	8	unsure_yes.png	9	escape	2
1	testBlock	centre_mouse	4	42	reveal	im0000308.jpg	N_1.png	1	N_2.png	2	N_3.png	3	N_4.png	4	Y_1.png	1	Y_2.png	2	Y_3.png	3	Y_4.png	4	confidence.png	1	guessing.png	2	respond_yes.png	3	respond_no.png	4	Word 1 of 12	1	Image 8 of 40	1	Definitely_NO.png	6	Definitely_YES.png	7	unsure_no.png	8	unsure_yes.png	9	reveal.png	5
1	testBlock	present_trial	5	43	no_4	im0000205.jpg	N_1.png	1	N_2.png	2	N_3.png	3	N_4.png	4	Y_1.png	1	Y_2.png	2	Y_3.png	3	Y_4.png	4	confidence.png	1	guessing.png	2	respond_yes.png	3	respond_no.png	4	Word 2 of 12	1	Image 8 of 40	1	Definitely_NO.png	6	Definitely_YES.png	7	unsure_no.png	8	unsure_yes.png	9	people	1
1	testBlock	centre_mouse	6	54	reveal	im0000205.jpg	N_1.png	1	N_2.png	2	N_3.png	3	N_4.png	4	Y_1.png	1	Y_2.png	2	Y_3.png	3	Y_4.png	4	confidence.png	1	guessing.png	2	respond_yes.png	3	respond_no.png	4	Word 2 of 12	1	Image 8 of 40	1	Definitely_NO.png	6	Definitely_YES.png	7	unsure_no.png	8	unsure_yes.png	9	reveal.png	5
1	testBlock	present_trial	7	45	no_4	im0000205.jpg	N_1.png	1	N_2.png	2	N_3.png	3	N_4.png	4	Y_1.png	1	Y_2.png	2	Y_3.png	3	Y_4.png	4	confidence.png	1	guessing.png	2	respond_yes.png	3	respond_no.png	4	Word 3 of 12	1	Image 8 of 40	1	Definitely_NO.png	6	Definitely_YES.png	7	unsure_no.png	8	unsure_yes.png	9	school	6
1	testBlock	centre_mouse	8	49	reveal	im0000205.jpg	N_1.png	1	N_2.png	2	N_3.png	3	N_4.png	4	Y_1.png	1	Y_2.png	2	Y_3.png	3	Y_4.png	4	confidence.png	1	guessing.png	2	respond_yes.png	3	respond_no.png	4	Word 3 of 12	1	Image 8 of 40	1	Definitely_NO.png	6	Definitely_YES.png	7	unsure_no.png	8	unsure_yes.png	9	reveal.png	5
1	testBlock	absent_trial	9	33	no_3	im0000205.jpg	N_1.png	1	N_2.png	2	N_3.png	3	N_4.png	4	Y_1.png	1	Y_2.png	2	Y_3.png	3	Y_4.png	4	confidence.png	1	guessing.png	2	respond_yes.png	3	respond_no.png	4	Word 4 of 12	1	Image 8 of 40	1	Definitely_NO.png	6	Definitely_YES.png	7	unsure_no.png	8	unsure_yes.png	9	asphalt	1
1	testBlock	centre_mouse	10	56	reveal	im0000205.jpg	N_1.png	1	N_2.png	2	N_3.png	3	N_4.png	4	Y_1.png	1	Y_2.png	2	Y_3.png	3	Y_4.png	4	confidence.png	1	guessing.png	2	respond_yes.png	3	respond_no.png	4	Word 4 of 12	1	Image 8 of 40	1	Definitely_NO.png	6	Definitely_YES.png	7	unsure_no.png	8	unsure_yes.png	9	reveal.png	5
1	testBlock	absent_trial	11	17	no_2	im0000205.jpg	N_1.png	1	N_2.png	2	N_3.png	3	N_4.png	4	Y_1.png	1	Y_2.png	2	Y_3.png	3	Y_4.png	4	confidence.png	1	guessing.png	2	respond_yes.png	3	respond_no.png	4	Word 5 of 12	1	Image 8 of 40	1	Definitely_NO.png	6	Definitely_YES.png	7	unsure_no.png	8	unsure_yes.png	9	bundle-three	6
1	testBlock	centre_mouse	12	56	reveal	im0000205.jpg	N_1.png	1	N_2.png	2	N_3.png	3	N_4.png	4	Y_1.png	1	Y_2.png	2	Y_3.png	3	Y_4.png	4	confidence.png	1	guessing.png	2	respond_yes.png	3	respond_no.png	4	Word 5 of 12	1	Image 8 of 40	1	Definitely_NO.png	6	Definitely_YES.png	7	unsure_no.png	8	unsure_yes.png	9	reveal.png	5
1	testBlock	present_trial	13	42	no_2	im0000205.jpg	N_1.png	1	N_2.png	2	N_3.png	3	N_4.png	4	Y_1.png	1	Y_2.png	2	Y_3.png	3	Y_4.png	4	confidence.png	1	guessing.png	2	respond_yes.png	3	respond_no.png	4	Word 6 of 12	1	Image 8 of 40	1	Definitely_NO.png	6	Definitely_YES.png	7	unsure_no.png	8	unsure_yes.png	9	boy	5
1	testBlock	centre_mouse	14	67	reveal	im0000205.jpg	N_1.png	1	N_2.png	2	N_3.png	3	N_4.png	4	Y_1.png	1	Y_2.png	2	Y_3.png	3	Y_4.png	4	confidence.png	1	guessing.png	2	respond_yes.png	3	respond_no.png	4	Word 6 of 12	1	Image 8 of 40	1	Definitely_NO.png	6	Definitely_YES.png	7	unsure_no.png	8	unsure_yes.png	9	reveal.png	5
1	testBlock	absent_trial	15	40	yes_2	im0000205.jpg	N_1.png	1	N_2.png	2	N_3.png	3	N_4.png	4	Y_1.png	1	Y_2.png	2	Y_3.png	3	Y_4.png	4	confidence.png	1	guessing.png	2	respond_yes.png	3	respond_no.png	4	Word 7 of 12	1	Image 8 of 40	1	Definitely_NO.png	6	Definitely_YES.png	7	unsure_no.png	8	unsure_yes.png	9	break	9
1	testBlock	centre_mouse	16	55	reveal	im0000205.jpg	N_1.png	1	N_2.png	2	N_3.png	3	N_4.png	4	Y_1.png	1	Y_2.png	2	Y_3.png	3	Y_4.png	4	confidence.png	1	guessing.png	2	respond_yes.png	3	respond_no.png	4	Word 7 of 12	1	Image 8 of 40	1	Definitely_NO.png	6	Definitely_YES.png	7	unsure_no.png	8	unsure_yes.png	9	reveal.png	5
1	testBlock	present_trial	17	56	no_3	im0000205.jpg	N_1.png	1	N_2.png	2	N_3.png	3	N_4.png	4	Y_1.png	1	Y_2.png	2	Y_3.png	3	Y_4.png	4	confidence.png	1	guessing.png	2	respond_yes.png	3	respond_no.png	4	Word 8 of 12	1	Image 8 of 40	1	Definitely_NO.png	6	Definitely_YES.png	7	unsure_no.png	8	unsure_yes.png	9	talk	2
1	testBlock	centre_mouse	18	37	reveal	im0000205.jpg	N_1.png	1	N_2.png	2	N_3.png	3	N_4.png	4	Y_1.png	1	Y_2.png	2	Y_3.png	3	Y_4.png	4	confidence.png	1	guessing.png	2	respond_yes.png	3	respond_no.png	4	Word 8 of 12	1	Image 8 of 40	1	Definitely_NO.png	6	Definitely_YES.png	7	unsure_no.png	8	unsure_yes.png	9	reveal.png	5
1	testBlock	absent_trial	19	40	no_4	im0000205.jpg	N_1.png	1	N_2.png	2	N_3.png	3	N_4.png	4	Y_1.png	1	Y_2.png	2	Y_3.png	3	Y_4.png	4	confidence.png	1	guessing.png	2	respond_yes.png	3	respond_no.png	4	Word 9 of 12	1	Image 8 of 40	1	Definitely_NO.png	6	Definitely_YES.png	7	unsure_no.png	8	unsure_yes.png	9	harvest	4
1	testBlock	centre_mouse	20	51	reveal	im0000205.jpg	N_1.png	1	N_2.png	2	N_3.png	3	N_4.png	4	Y_1.png	1	Y_2.png	2	Y_3.png	3	Y_4.png	4	confidence.png	1	guessing.png	2	respond_yes.png	3	respond_no.png	4	Word 9 of 12	1	Image 8 of 40	1	Definitely_NO.png	6	Definitely_YES.png	7	unsure_no.png	8	unsure_yes.png	9	reveal.png	5
1	testBlock	present_trial	21	43	yes_1	im0000205.jpg	N_1.png	1	N_2.png	2	N_3.png	3	N_4.png	4	Y_1.png	1	Y_2.png	2	Y_3.png	3	Y_4.png	4	confidence.png	1	guessing.png	2	respond_yes.png	3	respond_no.png	4	Word 10 of 12	1	Image 8 of 40	1	Definitely_NO.png	6	Definitely_YES.png	7	unsure_no.png	8	unsure_yes.png	9	speak	3
1	testBlock	centre_mouse	22	43	reveal	im0000205.jpg	N_1.png	1	N_2.png	2	N_3.png	3	N_4.png	4	Y_1.png	1	Y_2.png	2	Y_3.png	3	Y_4.png	4	confidence.png	1	guessing.png	2	respond_yes.png	3	respond_no.png	4	Word 10 of 12	1	Image 8 of 40	1	Definitely_NO.png	6	Definitely_YES.png	7	unsure_no.png	8	unsure_yes.png	9	reveal.png	5
1	testBlock	present_trial	23	43	yes_4	im0000205.jpg	N_1.png	1	N_2.png	2	N_3.png	3	N_4.png	4	Y_1.png	1	Y_2.png	2	Y_3.png	3	Y_4.png	4	confidence.png	1	guessing.png	2	respond_yes.png	3	respond_no.png	4	Word 11 of 12	1	Image 8 of 40	1	Definitely_NO.png	6	Definitely_YES.png	7	unsure_no.png	8	unsure_yes.png	9	stand	4
1	testBlock	centre_mouse	24	60	reveal	im0000205.jpg	N_1.png	1	N_2.png	2	N_3.png	3	N_4.png	4	Y_1.png	1	Y_2.png	2	Y_3.png	3	Y_4.png	4	confidence.png	1	guessing.png	2	respond_yes.png	3	respond_no.png	4	Word 11 of 12	1	Image 8 of 40	1	Definitely_NO.png	6	Definitely_YES.png	7	unsure_no.png	8	unsure_yes.png	9	reveal.png	5
1	testBlock	absent_trial	25	36	yes_3	im0000205.jpg	N_1.png	1	N_2.png	2	N_3.png	3	N_4.png	4	Y_1.png	1	Y_2.png	2	Y_3.png	3	Y_4.png	4	confidence.png	1	guessing.png	2	respond_yes.png	3	respond_no.png	4	Word 12 of 12	1	Image 8 of 40	1	Definitely_NO.png	6	Definitely_YES.png	7	unsure_no.png	8	unsure_yes.png	9	bird	5
1	testBlock	centre_mouse	26	58	reveal	im0000205.jpg	N_1.png	1	N_2.png	2	N_3.png	3	N_4.png	4	Y_1.png	1	Y_2.png	2	Y_3.png	3	Y_4.png	4	confidence.png	1	guessing.png	2	respond_yes.png	3	respond_no.png	4	Word 12 of 12	1	Image 8 of 40	1	Definitely_NO.png	6	Definitely_YES.png	7	unsure_no.png	8	unsure_yes.png	9	reveal.png	5
1	testBlock	test	1	1	0	im0000205.jpg	+	1	im0000385.jpg	37	mask3.jpg	3	mask1.jpg	1	mask4.jpg	4	mask4.jpg	4	mask4.jpg	4	0	0	0	0	0	0	0	0	0	0	0	0	0	0	0	0	0	0	0	0	0	0	0	0
1	testBlock	centre_mouse	2	38	reveal	im0000205.jpg	N_1.png	1	N_2.png	2	N_3.png	3	N_4.png	4	Y_1.png	1	Y_2.png	2	Y_3.png	3	Y_4.png	4	confidence.png	1	guessing.png	2	respond_yes.png	3	respond_no.png	4	Word 0 of 12	1	Image 9 of 40	1	Definitely_NO.png	6	Definitely_YES.png	7	unsure_no.png	8	unsure_yes.png	9	reveal.png	5
1	testBlock	present_trial	3	34	no_1	im0000385.jpg	N_1.png	1	N_2.png	2	N_3.png	3	N_4.png	4	Y_1.png	1	Y_2.png	2	Y_3.png	3	Y_4.png	4	confidence.png	1	guessing.png	2	respond_yes.png	3	respond_no.png	4	Word 1 of 12	1	Image 9 of 40	1	Definitely_NO.png	6	Definitely_YES.png	7	unsure_no.png	8	unsure_yes.png	9	hot	5
1	testBlock	centre_mouse	4	53	reveal	im0000385.jpg	N_1.png	1	N_2.png	2	N_3.png	3	N_4.png	4	Y_1.png	1	Y_2.png	2	Y_3.png	3	Y_4.png	4	confidence.png	1	guessing.png	2	respond_yes.png	3	respond_no.png	4	Word 1 of 12	1	Image 9 of 40	1	Definitely_NO.png	6	Definitely_YES.png	7	unsure_no.png	8	unsure_yes.png	9	reveal.png	5
1	testBlock	present_trial	5	57	no_4	im0000385.jpg	N_1.png	1	N_2.png	2	N_3.png	3	N_4.png	4	Y_1.png	1	Y_2.png	2	Y_3.png	3	Y_4.png	4	confidence.png	1	guessing.png	2	respond_yes.png	3	respond_no.png	4	Word 2 of 12	1	Image 9 of 40	1	Definitely_NO.png	6	Definitely_YES.png	7	unsure_no.png	8	unsure_yes.png	9	cup	3
1	testBlock	centre_mouse	6	49	reveal	im0000385.jpg	N_1.png	1	N_2.png	2	N_3.png	3	N_4.png	4	Y_1.png	1	Y_2.png	2	Y_3.png	3	Y_4.png	4	confidence.png	1	guessing.png	2	respond_yes.png	3	respond_no.png	4	Word 2 of 12	1	Image 9 of 40	1	Definitely_NO.png	6	Definitely_YES.png	7	unsure_no.png	8	unsure_yes.png	9	reveal.png	5
1	testBlock	absent_trial	7	44	no_3	im0000385.jpg	N_1.png	1	N_2.png	2	N_3.png	3	N_4.png	4	Y_1.png	1	Y_2.png	2	Y_3.png	3	Y_4.png	4	confidence.png	1	guessing.png	2	respond_yes.png	3	respond_no.png	4	Word 3 of 12	1	Image 9 of 40	1	Definitely_NO.png	6	Definitely_YES.png	7	unsure_no.png	8	unsure_yes.png	9	antler	3
1	testBlock	centre_mouse	8	24	reveal	im0000385.jpg	N_1.png	1	N_2.png	2	N_3.png	3	N_4.png	4	Y_1.png	1	Y_2.png	2	Y_3.png	3	Y_4.png	4	confidence.png	1	guessing.png	2	respond_yes.png	3	respond_no.png	4	Word 3 of 12	1	Image 9 of 40	1	Definitely_NO.png	6	Definitely_YES.png	7	unsure_no.png	8	unsure_yes.png	9	reveal.png	5
1	testBlock	absent_trial	9	37	no_2	im0000385.jpg	N_1.png	1	N_2.png	2	N_3.png	3	N_4.png	4	Y_1.png	1	Y_2.png	2	Y_3.png	3	Y_4.png	4	confidence.png	1	guessing.png	2	respond_yes.png	3	respond_no.png	4	Word 4 of 12	1	Image 9 of 40	1	Definitely_NO.png	6	Definitely_YES.png	7	unsure_no.png	8	unsure_yes.png	9	hug	5
1	testBlock	centre_mouse	10	62	reveal	im0000385.jpg	N_1.png	1	N_2.png	2	N_3.png	3	N_4.png	4	Y_1.png	1	Y_2.png	2	Y_3.png	3	Y_4.png	4	confidence.png	1	guessing.png	2	respond_yes.png	3	respond_no.png	4	Word 4 of 12	1	Image 9 of 40	1	Definitely_NO.png	6	Definitely_YES.png	7	unsure_no.png	8	unsure_yes.png	9	reveal.png	5
1	testBlock	absent_trial	11	41	no_1	im0000385.jpg	N_1.png	1	N_2.png	2	N_3.png	3	N_4.png	4	Y_1.png	1	Y_2.png	2	Y_3.png	3	Y_4.png	4	confidence.png	1	guessing.png	2	respond_yes.png	3	respond_no.png	4	Word 5 of 12	1	Image 9 of 40	1	Definitely_NO.png	6	Definitely_YES.png	7	unsure_no.png	8	unsure_yes.png	9	rest	6
1	testBlock	centre_mouse	12	52	reveal	im0000385.jpg	N_1.png	1	N_2.png	2	N_3.png	3	N_4.png	4	Y_1.png	1	Y_2.png	2	Y_3.png	3	Y_4.png	4	confidence.png	1	guessing.png	2	respond_yes.png	3	respond_no.png	4	Word 5 of 12	1	Image 9 of 40	1	Definitely_NO.png	6	Definitely_YES.png	7	unsure_no.png	8	unsure_yes.png	9	reveal.png	5
1	testBlock	absent_trial	13	23	yes_4	im0000385.jpg	N_1.png	1	N_2.png	2	N_3.png	3	N_4.png	4	Y_1.png	1	Y_2.png	2	Y_3.png	3	Y_4.png	4	confidence.png	1	guessing.png	2	respond_yes.png	3	respond_no.png	4	Word 6 of 12	1	Image 9 of 40	1	Definitely_NO.png	6	Definitely_YES.png	7	unsure_no.png	8	unsure_yes.png	9	furniture	7
1	testBlock	centre_mouse	14	49	reveal	im0000385.jpg	N_1.png	1	N_2.png	2	N_3.png	3	N_4.png	4	Y_1.png	1	Y_2.png	2	Y_3.png	3	Y_4.png	4	confidence.png	1	guessing.png	2	respond_yes.png	3	respond_no.png	4	Word 6 of 12	1	Image 9 of 40	1	Definitely_NO.png	6	Definitely_YES.png	7	unsure_no.png	8	unsure_yes.png	9	reveal.png	5
1	testBlock	present_trial	15	47	no_4	im0000385.jpg	N_1.png	1	N_2.png	2	N_3.png	3	N_4.png	4	Y_1.png	1	Y_2.png	2	Y_3.png	3	Y_4.png	4	confidence.png	1	guessing.png	2	respond_yes.png	3	respond_no.png	4	Word 7 of 12	1	Image 9 of 40	1	Definitely_NO.png	6	Definitely_YES.png	7	unsure_no.png	8	unsure_yes.png	9	food	4
1	testBlock	centre_mouse	16	60	reveal	im0000385.jpg	N_1.png	1	N_2.png	2	N_3.png	3	N_4.png	4	Y_1.png	1	Y_2.png	2	Y_3.png	3	Y_4.png	4	confidence.png	1	guessing.png	2	respond_yes.png	3	respond_no.png	4	Word 7 of 12	1	Image 9 of 40	1	Definitely_NO.png	6	Definitely_YES.png	7	unsure_no.png	8	unsure_yes.png	9	reveal.png	5
1	testBlock	present_trial	17	26	no_2	im0000385.jpg	N_1.png	1	N_2.png	2	N_3.png	3	N_4.png	4	Y_1.png	1	Y_2.png	2	Y_3.png	3	Y_4.png	4	confidence.png	1	guessing.png	2	respond_yes.png	3	respond_no.png	4	Word 8 of 12	1	Image 9 of 40	1	Definitely_NO.png	6	Definitely_YES.png	7	unsure_no.png	8	unsure_yes.png	9	breakfast	2
1	testBlock	centre_mouse	18	51	reveal	im0000385.jpg	N_1.png	1	N_2.png	2	N_3.png	3	N_4.png	4	Y_1.png	1	Y_2.png	2	Y_3.png	3	Y_4.png	4	confidence.png	1	guessing.png	2	respond_yes.png	3	respond_no.png	4	Word 8 of 12	1	Image 9 of 40	1	Definitely_NO.png	6	Definitely_YES.png	7	unsure_no.png	8	unsure_yes.png	9	reveal.png	5
1	testBlock	absent_trial	19	31	yes_1	im0000385.jpg	N_1.png	1	N_2.png	2	N_3.png	3	N_4.png	4	Y_1.png	1	Y_2.png	2	Y_3.png	3	Y_4.png	4	confidence.png	1	guessing.png	2	respond_yes.png	3	respond_no.png	4	Word 9 of 12	1	Image 9 of 40	1	Definitely_NO.png	6	Definitely_YES.png	7	unsure_no.png	8	unsure_yes.png	9	chat	2
1	testBlock	centre_mouse	20	29	reveal	im0000385.jpg	N_1.png	1	N_2.png	2	N_3.png	3	N_4.png	4	Y_1.png	1	Y_2.png	2	Y_3.png	3	Y_4.png	4	confidence.png	1	guessing.png	2	respond_yes.png	3	respond_no.png	4	Word 9 of 12	1	Image 9 of 40	1	Definitely_NO.png	6	Definitely_YES.png	7	unsure_no.png	8	unsure_yes.png	9	reveal.png	5
1	testBlock	absent_trial	21	38	no_2	im0000385.jpg	N_1.png	1	N_2.png	2	N_3.png	3	N_4.png	4	Y_1.png	1	Y_2.png	2	Y_3.png	3	Y_4.png	4	confidence.png	1	guessing.png	2	respond_yes.png	3	respond_no.png	4	Word 10 of 12	1	Image 9 of 40	1	Definitely_NO.png	6	Definitely_YES.png	7	unsure_no.png	8	unsure_yes.png	9	metropolis	8
1	testBlock	centre_mouse	22	30	reveal	im0000385.jpg	N_1.png	1	N_2.png	2	N_3.png	3	N_4.png	4	Y_1.png	1	Y_2.png	2	Y_3.png	3	Y_4.png	4	confidence.png	1	guessing.png	2	respond_yes.png	3	respond_no.png	4	Word 10 of 12	1	Image 9 of 40	1	Definitely_NO.png	6	Definitely_YES.png	7	unsure_no.png	8	unsure_yes.png	9	reveal.png	5
1	testBlock	present_trial	23	61	no_4	im0000385.jpg	N_1.png	1	N_2.png	2	N_3.png	3	N_4.png	4	Y_1.png	1	Y_2.png	2	Y_3.png	3	Y_4.png	4	confidence.png	1	guessing.png	2	respond_yes.png	3	respond_no.png	4	Word 11 of 12	1	Image 9 of 40	1	Definitely_NO.png	6	Definitely_YES.png	7	unsure_no.png	8	unsure_yes.png	9	coffee	1
1	testBlock	centre_mouse	24	60	reveal	im0000385.jpg	N_1.png	1	N_2.png	2	N_3.png	3	N_4.png	4	Y_1.png	1	Y_2.png	2	Y_3.png	3	Y_4.png	4	confidence.png	1	guessing.png	2	respond_yes.png	3	respond_no.png	4	Word 11 of 12	1	Image 9 of 40	1	Definitely_NO.png	6	Definitely_YES.png	7	unsure_no.png	8	unsure_yes.png	9	reveal.png	5
1	testBlock	present_trial	25	45	no_1	im0000385.jpg	N_1.png	1	N_2.png	2	N_3.png	3	N_4.png	4	Y_1.png	1	Y_2.png	2	Y_3.png	3	Y_4.png	4	confidence.png	1	guessing.png	2	respond_yes.png	3	respond_no.png	4	Word 12 of 12	1	Image 9 of 40	1	Definitely_NO.png	6	Definitely_YES.png	7	unsure_no.png	8	unsure_yes.png	9	plate	6
1	testBlock	centre_mouse	26	61	reveal	im0000385.jpg	N_1.png	1	N_2.png	2	N_3.png	3	N_4.png	4	Y_1.png	1	Y_2.png	2	Y_3.png	3	Y_4.png	4	confidence.png	1	guessing.png	2	respond_yes.png	3	respond_no.png	4	Word 12 of 12	1	Image 9 of 40	1	Definitely_NO.png	6	Definitely_YES.png	7	unsure_no.png	8	unsure_yes.png	9	reveal.png	5
1	testBlock	test	1	1	0	im0000385.jpg	+	1	im0000221.jpg	17	mask5.jpg	5	mask4.jpg	4	mask5.jpg	5	mask5.jpg	5	mask1.jpg	1	0	0	0	0	0	0	0	0	0	0	0	0	0	0	0	0	0	0	0	0	0	0	0	0
1	testBlock	centre_mouse	2	33	reveal	im0000385.jpg	N_1.png	1	N_2.png	2	N_3.png	3	N_4.png	4	Y_1.png	1	Y_2.png	2	Y_3.png	3	Y_4.png	4	confidence.png	1	guessing.png	2	respond_yes.png	3	respond_no.png	4	Word 0 of 12	1	Image 10 of 40	1	Definitely_NO.png	6	Definitely_YES.png	7	unsure_no.png	8	unsure_yes.png	9	reveal.png	5
1	testBlock	absent_trial	3	61	no_2	im0000385.jpg	N_1.png	1	N_2.png	2	N_3.png	3	N_4.png	4	Y_1.png	1	Y_2.png	2	Y_3.png	3	Y_4.png	4	confidence.png	1	guessing.png	2	respond_yes.png	3	respond_no.png	4	Word 1 of 12	1	Image 10 of 40	1	Definitely_NO.png	6	Definitely_YES.png	7	unsure_no.png	8	unsure_yes.png	9	barren	10
1	testBlock	centre_mouse	4	52	reveal	im0000385.jpg	N_1.png	1	N_2.png	2	N_3.png	3	N_4.png	4	Y_1.png	1	Y_2.png	2	Y_3.png	3	Y_4.png	4	confidence.png	1	guessing.png	2	respond_yes.png	3	respond_no.png	4	Word 1 of 12	1	Image 10 of 40	1	Definitely_NO.png	6	Definitely_YES.png	7	unsure_no.png	8	unsure_yes.png	9	reveal.png	5
1	testBlock	absent_trial	5	36	no_1	im0000385.jpg	N_1.png	1	N_2.png	2	N_3.png	3	N_4.png	4	Y_1.png	1	Y_2.png	2	Y_3.png	3	Y_4.png	4	confidence.png	1	guessing.png	2	respond_yes.png	3	respond_no.png	4	Word 2 of 12	1	Image 10 of 40	1	Definitely_NO.png	6	Definitely_YES.png	7	unsure_no.png	8	unsure_yes.png	9	spectacle	3
1	testBlock	centre_mouse	6	55	reveal	im0000385.jpg	N_1.png	1	N_2.png	2	N_3.png	3	N_4.png	4	Y_1.png	1	Y_2.png	2	Y_3.png	3	Y_4.png	4	confidence.png	1	guessing.png	2	respond_yes.png	3	respond_no.png	4	Word 2 of 12	1	Image 10 of 40	1	Definitely_NO.png	6	Definitely_YES.png	7	unsure_no.png	8	unsure_yes.png	9	reveal.png	5
